ax,ay,az,gx,gy,gz
0.72,0.0566,0.6729,31.4275,-118.8473,96.8779
0.7529,0.0457,0.6833,40.3817,-118.7405,100.0611
0.7634,0.0359,0.6812,49.7405,-118.0992,102.1832
0.7983,0.0171,0.6689,59.3282,-117.145,104.8626
0.8293,-0.0034,0.6731,69.7557,-115.6641,107.9237
0.8655,-0.0291,0.6799,79.4504,-114.5267,110.2901
0.9021,-0.0557,0.6572,89.0458,-112.855,113.0153
0.9443,-0.0676,0.637,98.5115,-110.7405,115.2137
0.9846,-0.0811,0.6152,107.687,-108.3969,117.4809
1.0344,-0.1011,0.6055,116.916,-105.626,119.2443
1.061,-0.1006,0.5942,124.8702,-103.1832,120.8931
1.1025,-0.106,0.5691,132.8855,-99.9008,122.2672
1.1475,-0.0955,0.5505,140.4046,-97.2366,123.1985
1.187,-0.1008,0.5227,147.5649,-93.1145,123.6641
1.2227,-0.1128,0.5081,154.0916,-89.5191,123.8321
1.2583,-0.1084,0.5017,160.4198,-85.2519,123.2595
1.2888,-0.1069,0.488,166.4427,-81.8855,122.4275
1.313,-0.1133,0.4851,172.1985,-78.7099,121.4427
1.3408,-0.126,0.4783,177.7939,-76.229,120.2824
1.3472,-0.124,0.4661,183.229,-74.1756,118.3053
1.3684,-0.1379,0.4446,190.0763,-72.2366,116.4809
1.3813,-0.1455,0.4465,195.5954,-71.3359,114.4427
1.3911,-0.1467,0.4446,201.0992,-71.1832,112.7481
1.4055,-0.1538,0.4236,206.4504,-71.1145,111.0611
1.4175,-0.1489,0.3928,211.5725,-71.4046,109.4198
1.4136,-0.1619,0.3525,216.6336,-71.0534,107.3969
1.4263,-0.1677,0.3315,221.5878,-70.6489,105.8397
1.4287,-0.1743,0.2974,226.0382,-70.3588,103.6031
1.4399,-0.1838,0.2649,230.4886,-70.313,101.6489
1.4458,-0.189,0.2412,234.4122,-70.5649,100.1069
1.4246,-0.219,0.2068,237.9771,-70.6718,98.4427
1.4534,-0.2256,0.1973,241.4427,-70.4733,96.7786
1.4363,-0.2432,0.1577,244.626,-70.3435,95.1832
1.4441,-0.2629,0.1521,247.4886,-70.9542,93.6489
1.4619,-0.2737,0.1394,250.1298,-71.9084,92.458
1.4695,-0.2827,0.1204,250.1298,-73.2748,91.3435
1.4871,-0.2969,0.1062,250.1298,-74.6718,90.4275
1.5049,-0.291,0.0928,250.1298,-76.0687,89.3893
1.5117,-0.3064,0.0671,250.1298,-77.5343,88.4962
1.5413,-0.3018,0.0659,250.1298,-79.8931,87.8244
1.564,-0.3091,0.0356,250.1298,-81.626,87.0458
1.6211,-0.3196,-0.009,250.1298,-82.7252,85.8855
1.6633,-0.3506,-0.0408,250.1298,-84.0076,84.5725
1.7151,-0.3655,-0.0747,250.1298,-85.1832,83.1603
1.7688,-0.3894,-0.126,250.1298,-85.4198,81.0534
1.8181,-0.4014,-0.1577,250.1298,-85.7481,78.5573
1.874,-0.4243,-0.1909,250.1298,-86.4122,75.5725
1.8999,-0.4221,-0.2007,250.1298,-87.3511,71.8244
1.9519,-0.4299,-0.2505,250.1298,-88.5573,66.6947
1.9999,-0.4253,-0.2664,250.1298,-90.5496,61.6336
1.9999,-0.4109,-0.2944,250.1298,-91.3511,55.6107
1.9999,-0.4041,-0.3193,250.1298,-94.5496,49.0611
1.9999,-0.3923,-0.3291,250.1298,-96.2519,41.8168
1.9999,-0.3838,-0.3396,250.1298,-100.0382,34.0076
1.9999,-0.3704,-0.363,250.1298,-104.0763,25.5878
1.9999,-0.3845,-0.4048,250.1298,-107.1756,16.1527
1.9999,-0.3958,-0.4456,250.1298,-107.5573,5.855
1.9999,-0.4138,-0.4995,250.1298,-106.6107,-5.0763
1.9999,-0.4238,-0.5217,250.1298,-105.1832,-17.2748
1.9999,-0.4409,-0.5459,250.1298,-103.6718,-29.2977
1.9999,-0.4509,-0.5598,250.1298,-101.9924,-41.626
1.9999,-0.4451,-0.5593,250.1298,-101.2137,-53.8321
1.9999,-0.4368,-0.5698,250.1298,-101.0611,-65.9847
1.9999,-0.4338,-0.561,250.1298,-100.9542,-78.2366
1.9999,-0.4355,-0.564,250.1298,-101.1145,-90.0229
1.9999,-0.4319,-0.5486,250.1298,-101.8931,-101.374
1.9999,-0.428,-0.5354,250.1298,-102.9237,-112.6031
1.9999,-0.4263,-0.5295,250.1298,-104.0305,-122.916
1.9999,-0.4238,-0.5222,250.1298,-105.4809,-132.8321
1.9999,-0.4282,-0.5217,250.1298,-106.9466,-142.2824
1.9999,-0.4441,-0.521,250.1298,-108.5954,-151.6488
1.9999,-0.4617,-0.5334,250.1298,-110.1908,-160.1985
1.9999,-0.4771,-0.5544,250.1298,-111.6031,-169.1527
1.9999,-0.4839,-0.5659,250.1298,-112.5725,-177.8092
1.9999,-0.4893,-0.5906,250.1298,-112.8855,-186.4198
1.9999,-0.4978,-0.6062,250.1298,-112.8626,-197.542
1.9999,-0.5173,-0.6455,250.1298,-113.4046,-205.8244
1.9999,-0.5381,-0.679,250.1298,-114.0153,-213.5191
1.9999,-0.5493,-0.688,250.1298,-115.1221,-221.0382
1.9999,-0.5701,-0.7195,250.1298,-116.2366,-228.8321
1.9941,-0.572,-0.751,250.1298,-117.5496,-236.5878
1.978,-0.5752,-0.7844,250.1298,-119.6718,-243.7252
1.9368,-0.5769,-0.7839,250.1298,-122.7863,-250.1374
1.9097,-0.5571,-0.8044,248.9924,-126.2519,-250.1374
1.8921,-0.5408,-0.8301,246.8855,-130.6336,-250.1374
1.8643,-0.5125,-0.8396,244.1908,-135.1756,-250.1374
1.8293,-0.512,-0.8657,240.7176,-140.2672,-250.1374
1.8364,-0.5017,-0.8774,237.1069,-145.3817,-250.1374
1.8154,-0.5005,-0.9119,232.8321,-150.1527,-250.1374
1.8003,-0.5081,-0.9502,227.8321,-154.0763,-250.1374
1.7803,-0.5037,-0.9934,222.3053,-157.5573,-250.1374
1.7625,-0.4927,-1.0039,216.0992,-160.6107,-250.1374
1.7427,-0.4646,-1.0479,209.4351,-162.6412,-250.1374
1.7219,-0.4502,-1.0911,202.6565,-162.7405,-250.1374
1.6912,-0.4309,-1.1287,195.6718,-161.2748,-250.1374
1.6848,-0.4221,-1.1523,188.5496,-158.3206,-250.1374
1.6582,-0.4045,-1.1946,181.0992,-154.2443,-250.1374
1.6218,-0.3821,-1.2368,173.374,-149.1374,-250.1374
1.5942,-0.3696,-1.2666,165.8244,-142.6794,-250.1374
1.5537,-0.3499,-1.2947,158.4427,-135.8473,-250.1374
1.5164,-0.3303,-1.3088,151.0076,-128.5191,-250.1374
1.4707,-0.3198,-1.325,143.7405,-121.2595,-250.1374
1.4331,-0.3008,-1.3232,136.0763,-114.5649,-250.1374
1.3811,-0.2888,-1.3262,128.9008,-108.0382,-250.1374
1.3574,-0.282,-1.3242,120.9847,-101.2443,-250.1374
1.303,-0.269,-1.3142,114.229,-95.6031,-250.1374
1.2617,-0.2585,-1.2922,107.7863,-89.8855,-250.1374
1.2107,-0.2446,-1.2988,101.145,-83.1756,-250.1374
1.1501,-0.2212,-1.3069,95.2214,-77.6336,-250.1374
1.0962,-0.2058,-1.3298,90.0763,-71.313,-250.1374
1.0425,-0.1802,-1.3411,85.3053,-65.0229,-250.1374
0.9854,-0.1685,-1.3423,81.4962,-59.3206,-250.1374
0.9426,-0.1692,-1.3789,78.3435,-53.6031,-250.1374
0.9004,-0.1716,-1.4014,75.5496,-47.855,-250.1374
0.8442,-0.1814,-1.4404,72.6947,-42.1069,-250.1374
0.7913,-0.1929,-1.4719,70.1374,-36.5802,-250.1374
0.748,-0.1931,-1.4863,66.9847,-31.5954,-250.1374
0.6968,-0.1853,-1.5027,64.084,-27.3359,-250.1374
0.6587,-0.1809,-1.4658,60.9084,-24.9847,-250.1374
0.6255,-0.1743,-1.4561,57.0916,-24.3817,-250.1374
0.5937,-0.1487,-1.4441,52.8092,-25.0076,-250.1374
0.5615,-0.134,-1.438,48.0763,-26.771,-250.1374
0.5188,-0.1201,-1.4434,41.9008,-29.9924,-250.1374
0.5076,-0.0918,-1.405,35.458,-36.5191,-250.1374
0.4346,-0.04,-1.3403,28.8168,-48.3664,-250.1374
0.4167,0.0149,-1.3123,21.9695,-61.8321,-250.1374
0.3728,0.051,-1.3176,14.6336,-75.4657,-250.1374
0.3623,0.0781,-1.321,6.8855,-89.1832,-250.1374
0.3579,0.0962,-1.3506,-1.8626,-102.084,-250.1374
0.3496,0.1179,-1.3757,-14.0076,-118.3053,-250.1374
0.3442,0.1458,-1.4045,-23.7176,-129.9771,-250.1374
0.3367,0.1575,-1.425,-33.2061,-139.6412,-250.1374
0.3281,0.1741,-1.468,-42.5344,-147.5878,-250.1374
0.3032,0.1807,-1.4587,-51.7481,-154.9542,-250.1374
0.2815,0.1704,-1.4766,-60.7939,-161.7786,-250.1374
0.2578,0.1721,-1.4536,-69.2595,-168.0687,-250.1374
0.2314,0.1538,-1.4434,-78.3053,-176.458,-250.1374
0.1838,0.1455,-1.4307,-86.6107,-185.0076,-250.1374
0.1465,0.123,-1.394,-94.5267,-194.5573,-250.1374
0.1206,0.114,-1.3723,-102.0458,-205.6031,-250.1374
0.0828,0.1025,-1.3396,-109.3817,-218.0229,-250.1374
0.0403,0.1038,-1.3162,-116.4733,-230.8244,-250.1374
0.0125,0.1313,-1.302,-123.1908,-244.2366,-250.1374
-0.0076,0.1711,-1.2742,-129.6565,-250.1374,-250.1374
-0.0261,0.1814,-1.2556,-135.8779,-250.1374,-250.1374
-0.0486,0.2061,-1.2466,-141.5725,-250.1374,-250.1374
-0.0764,0.2429,-1.2227,-147.0916,-250.1374,-248.1908
-0.0911,0.2576,-1.2183,-152.374,-250.1374,-243.4962
-0.1084,0.2649,-1.2161,-157.4809,-250.1374,-238.5725
-0.1199,0.2676,-1.2175,-162.313,-250.1374,-233.8244
-0.125,0.2764,-1.2439,-167.2824,-250.1374,-229.0382
-0.1445,0.3337,-1.2676,-171.7481,-250.1374,-224.1908
-0.1443,0.3491,-1.2739,-175.7328,-250.1374,-219.4198
-0.1562,0.3745,-1.2634,-180.2519,-250.1374,-214.5496
-0.1543,0.3735,-1.2681,-185.0305,-250.1374,-209.5725
-0.1543,0.3298,-1.2732,-189.9389,-250.1374,-204.6183
-0.1316,0.2522,-1.2712,-195.3435,-250.1374,-200.5191
-0.1062,0.1504,-1.2837,-201.6336,-250.1374,-196.7328
-0.0686,0.0562,-1.2834,-208.0687,-250.1374,-192.3053
-0.0264,-0.0193,-1.3281,-215.1069,-250.1374,-188.8855
-0.0054,-0.0652,-1.3589,-221.9008,-250.1374,-185.5802
0.0391,-0.1433,-1.3743,-230.2214,-250.1374,-182.0534
0.0906,-0.2063,-1.3918,-238.2366,-250.1374,-179.3359
0.1475,-0.2449,-1.4121,-246.2748,-250.1374,-176.7939
0.2263,-0.2124,-1.4204,-250.1374,-250.1374,-174.1069
0.3765,-0.1262,-1.4753,-250.1374,-250.1374,-170.2595
0.427,-0.0627,-1.3606,-250.1374,-250.1374,-166.2443
0.3914,-0.0642,-1.1323,-250.1374,-250.1374,-164.2519
0.4873,-0.0408,-1.1499,-250.1374,-250.1374,-163.4046
0.5684,-0.0247,-1.2258,-250.1374,-250.1374,-161.6107
0.6484,-0.0115,-1.2275,-250.1374,-250.1374,-159.8855
0.7092,-0.0034,-1.1953,-250.1374,-250.1374,-158.9389
0.7961,-0.0054,-1.1755,-250.1374,-250.1374,-158.2519
0.8701,-0.001,-1.1716,-250.1374,-250.1374,-157.771
0.9197,-0.0129,-1.1443,-250.1374,-250.1374,-158.0229
0.9502,-0.0151,-1.1272,-250.1374,-250.1374,-159.0382
0.9739,-0.0205,-1.1316,-250.1374,-250.1374,-160.8702
0.9734,-0.0234,-1.1165,-250.1374,-250.1374,-163.5802
0.9622,-0.0305,-1.1143,-250.1374,-250.1374,-167.0305
0.946,-0.0217,-1.1064,-250.1374,-250.1374,-170.9008
0.9109,-0.0293,-1.0989,-250.1374,-250.1374,-175.3969
0.8794,-0.053,-1.0779,-250.1374,-250.1374,-179.8702
0.8127,-0.0527,-1.0754,-250.1374,-249.0382,-184.9389
0.7449,-0.0208,-1.0774,-250.1374,-226.4046,-191.0916
0.6543,0.0159,-1.0583,-248.0153,-208.6794,-195.916
0.5818,0.0422,-1.0376,-246.0305,-194.3817,-199.9924
0.491,0.0649,-1.0098,-244.542,-182.2824,-203.3359
0.4055,0.0735,-0.9883,-243.5267,-172.6488,-205.9237
0.3135,0.0835,-0.9558,-243.0534,-164.8168,-207.9237
0.2102,0.1067,-0.9504,-243.1221,-156.7786,-209.3282
0.1506,0.1133,-0.9492,-243.6947,-149.687,-210.3817
0.051,0.1467,-0.9329,-244.4962,-142.5954,-211.1756
-0.0491,0.1731,-0.926,-245.3206,-136.855,-211.2137
-0.1477,0.2083,-0.9148,-246.5573,-132.0305,-210.4046
-0.2371,0.2417,-0.8826,-247.7634,-128.5954,-209.1908
-0.3218,0.2688,-0.8418,-249.4733,-126.2901,-207.3435
-0.3979,0.2878,-0.8313,-250.1374,-124.4962,-205.1221
-0.4714,0.314,-0.8135,-250.1374,-123.2519,-202.5343
-0.5315,0.3364,-0.7971,-250.1374,-122.8244,-199.458
-0.5662,0.3479,-0.7876,-250.1374,-123.4809,-196.1908
-0.6206,0.3511,-0.7563,-250.1374,-124.8473,-192.5496
-0.6741,0.3584,-0.74,-250.1374,-127.1145,-188.9237
-0.7039,0.3403,-0.6892,-250.1374,-131.1145,-185.1603
-0.7336,0.3198,-0.6638,-250.1374,-136.4198,-180.6641
-0.751,0.2834,-0.6345,-250.1374,-143.0763,-176.0229
-0.7708,0.2566,-0.5981,-250.1374,-152.0458,-170.5191
-0.7812,0.22,-0.5908,-250.1374,-161.7634,-164.6794
-0.7808,0.2129,-0.5796,-250.1374,-172.5954,-158.3588
-0.7932,0.1792,-0.582,-250.1374,-183.771,-151.4351
-0.7993,0.1382,-0.5779,-250.1374,-195.0076,-144.1908
-0.8108,0.0657,-0.5693,-250.1374,-205.5267,-136.8473
-0.822,-0.0269,-0.5901,-250.1374,-214.4733,-129.7557
-0.8274,-0.124,-0.594,-250.1374,-221.6031,-122.4657
-0.8311,-0.1978,-0.5989,-250.1374,-226.1069,-114.916
-0.8379,-0.2273,-0.5847,-250.1374,-228.0153,-107.1374
-0.8394,-0.2141,-0.5635,-250.1374,-228.6183,-98.4427
-0.8469,-0.1182,-0.5034,-250.1374,-227.1069,-88.229
-0.8545,0.0168,-0.4534,-250.1374,-223.5343,-78.1832
-0.8489,0.156,-0.3699,-250.1374,-218.1145,-67.0458
-0.8516,0.2576,-0.302,-250.1374,-210.6641,-55.0611
-0.8359,0.2993,-0.2468,-250.1374,-201.6947,-42.7099
-0.8218,0.3254,-0.2187,-250.1374,-190.3664,-29.7634
-0.8242,0.333,-0.2063,-250.1374,-176.4886,-16.7481
-0.814,0.3413,-0.1926,-248.3206,-160.8168,-3.7634
-0.814,0.3491,-0.1838,-243.9847,-143.7252,9.1603
-0.8105,0.3577,-0.1748,-239.7176,-126.1527,22.5267
-0.801,0.3699,-0.167,-235.3053,-107.6107,35.9389
-0.7871,0.3821,-0.1545,-230.9008,-89.5954,49.4122
-0.783,0.3801,-0.1296,-226.8321,-70.1908,62.8779
-0.7683,0.3716,-0.1123,-222.4733,-50.4504,77.4198
-0.7751,0.3716,-0.0896,-218.5114,-32.9618,90.6794
-0.7729,0.3745,-0.0681,-214.8702,-16.9847,103.6718
-0.7727,0.3765,-0.0667,-211.5802,-3.9313,116.0534
-0.7815,0.3782,-0.0427,-207.7863,8.8397,129.3512
-0.7939,0.3669,-0.0286,-204.4427,18.5114,141.3512
-0.7886,0.3674,0.0183,-201.1069,25.7023,153.1374
-0.79,0.3635,0.0496,-197.7252,30.2366,163.771
-0.7839,0.3606,0.0671,-193.9237,33.313,176.084
-0.7808,0.3547,0.0837,-190.5267,34.0229,185.9084
-0.7676,0.3384,0.1082,-187.8015,32.5725,194.2824
-0.7578,0.3274,0.1113,-185.0458,29.7786,201.8092
-0.7456,0.324,0.1401,-182.4351,24.9389,208.8321
-0.7295,0.3076,0.145,-180.0076,18.3969,214.9237
-0.708,0.2998,0.1526,-177.8779,10.3817,220.1985
-0.6934,0.303,0.1602,-175.7863,2.084,224.3053
-0.676,0.302,0.1616,-173.7481,-8.6565,227.8473
-0.6565,0.2949,0.1663,-171.8779,-20.1527,230.855
-0.6262,0.2898,0.1714,-169.7634,-32.6031,232.9466
-0.5925,0.2935,0.1716,-167.6183,-45.9618,234.4427
-0.5583,0.3044,0.1765,-165.4809,-59.6718,235.1069
-0.5129,0.3088,0.1729,-163.1374,-73.5038,235.084
-0.4768,0.3267,0.1414,-160.8397,-87.0763,234.4962
-0.4363,0.3357,0.1211,-158.5191,-100.084,233.2519
-0.4121,0.3376,0.1074,-155.9084,-111.4046,231.5496
-0.3643,0.3398,0.0605,-153.3206,-122.6031,229.2748
-0.3228,0.3452,0.0281,-151.1221,-131.8931,226.458
-0.2795,0.3494,-0.022,-148.7786,-139.7863,223.3359
-0.2307,0.3484,-0.0508,-147.0229,-146.0534,219.8779
-0.1951,0.3408,-0.0989,-145.1145,-150.145,216.4886
-0.1531,0.3459,-0.1274,-143.7328,-152.458,213.2137
-0.115,0.3564,-0.1665,-142.626,-152.3893,209.5954
-0.103,0.3684,-0.1819,-141.2901,-150.4809,206.5191
-0.0823,0.4036,-0.2144,-140.1298,-147.4046,203.5725
-0.073,0.4246,-0.2185,-139.0382,-143.8931,201.2214
-0.0562,0.4272,-0.2258,-138.1069,-139.9618,199.0916
-0.0557,0.4236,-0.2229,-137.229,-135.9084,197.3053
-0.0654,0.3767,-0.2378,-136.9618,-131.6031,195.8015
-0.0847,0.3318,-0.2402,-137.3053,-126.5267,195.1145
-0.1199,0.2686,-0.2449,-138.229,-121.3969,194.4046
-0.1389,0.2126,-0.2129,-139.7557,-116.6412,194.7176
-0.1531,0.2,-0.1941,-141.3512,-112.3969,196.0229
-0.1836,0.2024,-0.1492,-143.0,-107.9389,198.3664
-0.2239,0.2336,-0.0979,-144.2137,-103.2595,201.5191
-0.2595,0.2788,-0.0493,-145.0382,-98.0458,205.9542
-0.2915,0.292,0.0159,-145.4886,-92.2672,211.5573
-0.3203,0.2935,0.0552,-145.5725,-84.687,217.7481
-0.3584,0.3071,0.0986,-145.2519,-76.7328,224.7252
-0.3914,0.2971,0.1396,-144.1832,-68.0458,232.2214
-0.4124,0.291,0.1809,-142.6947,-58.6641,240.5878
-0.4441,0.2737,0.2319,-140.9618,-49.9847,249.2977
-0.478,0.2397,0.2715,-138.8931,-41.4962,250.1298
-0.5098,0.2178,0.3228,-136.2061,-34.3053,250.1298
-0.5459,0.187,0.354,-133.0076,-27.4962,250.1298
-0.574,0.1707,0.3997,-129.5573,-22.2366,250.1298
-0.5874,0.1448,0.4529,-125.9084,-19.2748,250.1298
-0.5979,0.1211,0.489,-121.8321,-17.9466,250.1298
-0.6021,0.1101,0.5088,-117.7786,-17.9466,250.1298
-0.6045,0.1025,0.5276,-112.5038,-19.313,250.1298
-0.5986,0.0854,0.5544,-107.5802,-22.1069,250.1298
-0.5886,0.0615,0.5688,-102.3206,-26.1908,250.1298
-0.5667,0.0408,0.574,-96.8092,-30.9008,250.1298
-0.5237,0.0215,0.5781,-90.3206,-37.5115,250.1298
-0.4746,0.0059,0.5759,-85.0687,-42.7481,250.1298
-0.418,-0.0061,0.5723,-79.7023,-47.5725,250.1298
-0.3398,-0.0225,0.551,-74.229,-51.916,250.1298
-0.2546,-0.0273,0.5364,-68.4427,-55.8244,250.1298
-0.1665,-0.0271,0.5242,-63.0305,-58.8168,250.1298
-0.0649,-0.03,0.5027,-57.5344,-61.374,250.1298
-0.0168,-0.0315,0.4968,-52.3359,-62.3969,250.1298
0.0691,-0.0337,0.469,-46.9542,-62.5496,250.1298
0.1677,-0.0537,0.467,-41.8092,-61.9237,250.1298
0.2495,-0.0667,0.4622,-37.1756,-60.5573,250.1298
0.333,-0.0713,0.4617,-32.7634,-59.4122,250.1298
0.4204,-0.0667,0.4685,-28.5496,-58.5802,250.1298
0.501,-0.0676,0.4734,-24.084,-58.3053,250.1298
0.583,-0.0723,0.4656,-19.8092,-58.1069,250.1298
0.6301,-0.0688,0.4482,-15.6947,-57.5115,250.1298
0.7097,-0.071,0.4548,-10.9695,-58.0687,250.1298
0.7864,-0.0696,0.4426,-6.313,-59.0687,250.1298
0.8611,-0.0789,0.4287,-2.084,-59.1069,250.1298
0.9346,-0.0852,0.4153,2.1756,-58.7023,250.1298
1.0122,-0.0925,0.4043,6.7405,-57.9847,250.1298
1.0862,-0.1199,0.3689,10.6947,-55.8931,250.1298
1.1428,-0.1367,0.3594,14.916,-53.0,250.1298
1.2061,-0.156,0.3298,18.7786,-49.0534,250.1298
1.2317,-0.1631,0.3374,22.4962,-44.4427,250.1298
1.2842,-0.1831,0.3474,26.3053,-39.5725,250.1298
1.3225,-0.1843,0.3547,30.2519,-34.6947,250.1298
1.354,-0.1907,0.3503,34.0992,-29.6412,250.1298
1.3853,-0.1892,0.3723,37.9771,-25.2061,250.1298
1.4124,-0.1833,0.385,41.8702,-20.7634,250.1298
1.4299,-0.1658,0.3997,46.2366,-15.3893,250.1298
1.4639,-0.1531,0.4087,50.3053,-10.0076,250.1298
1.4712,-0.1448,0.4009,54.2901,-4.7863,250.1298
1.4897,-0.156,0.4055,58.6183,1.6336,250.1298
1.5271,-0.1633,0.3977,62.687,8.229,250.1298
1.5601,-0.1748,0.3821,67.2443,15.5573,250.1298
1.6025,-0.189,0.3745,71.7481,23.313,250.1298
1.6438,-0.2061,0.3542,76.3969,31.7252,250.1298
1.6736,-0.2246,0.3235,80.9313,40.5191,250.1298
1.7014,-0.2358,0.311,85.7099,50.0229,250.1298
1.7234,-0.2336,0.3171,90.1221,59.0,250.1298
1.7402,-0.229,0.3157,94.6947,67.771,250.1298
1.7432,-0.1943,0.3535,99.0534,75.2595,250.1298
1.7427,-0.1611,0.3933,103.4885,81.2672,250.1298
1.7488,-0.1191,0.4409,107.9466,85.5267,250.1298
1.7649,-0.0789,0.4756,112.2519,88.1985,250.1298
1.7876,-0.0347,0.4871,117.1374,90.0,250.1298
1.7961,0.0039,0.4941,121.5191,90.6107,250.1298
1.8201,0.0247,0.4758,124.7786,90.7176,250.1298
1.8352,0.0356,0.4783,128.0534,90.458,250.1298
1.8596,0.0496,0.4592,131.0992,90.313,250.1298
1.897,0.0579,0.4548,132.626,88.7634,250.1298
1.9307,0.0771,0.4653,133.6107,86.7939,250.1298
1.9753,0.0981,0.4429,133.2824,85.6794,250.1298
1.9966,0.1277,0.4678,132.0534,82.3664,250.1298
1.9999,0.1553,0.4629,130.4122,78.1756,250.1298
1.9999,0.1814,0.4561,128.2137,75.0076,250.1298
1.9999,0.2114,0.4604,125.6718,71.6336,250.1298
1.9999,0.2415,0.4692,122.4885,67.2672,250.1298
1.9999,0.2659,0.4595,120.3511,63.3664,250.1298
1.9999,0.2783,0.4761,117.3206,59.2137,247.2137
1.9999,0.2786,0.4875,114.0305,54.5038,237.313
1.9999,0.283,0.5015,111.6336,49.4351,227.3512
1.9999,0.2793,0.5115,108.7252,44.3893,217.6031
1.9999,0.2703,0.5366,106.6794,38.6718,207.5802
1.9999,0.2639,0.5444,105.0153,33.1298,198.145
1.9563,0.2571,0.5557,103.9237,27.9084,188.7328
1.9063,0.2515,0.5781,103.5954,22.7252,180.3588
1.8496,0.2324,0.5984,104.229,16.7557,172.771
1.8232,0.2214,0.6003,105.4046,10.9466,166.2214
1.7798,0.1858,0.6008,107.7939,4.6641,161.0458
1.7549,0.1479,0.5706,110.5954,-0.374,157.5573
1.7415,0.1038,0.5337,114.1145,-4.4198,155.2901
1.748,0.0771,0.4585,118.229,-6.4046,154.0458
1.7717,0.0718,0.3726,122.2595,-5.2748,153.8244
1.7969,0.0581,0.2939,124.6107,-1.7099,154.0687
1.8296,0.0596,0.2166,128.1527,3.8626,154.8931
1.8428,0.0652,0.1787,130.0611,11.0076,155.5878
1.8616,0.0774,0.1294,132.2366,19.7939,155.9771
1.8765,0.0859,0.0806,133.2137,28.8168,156.1527
1.884,0.0942,0.073,133.1603,38.1908,155.3588
1.8799,0.1208,0.0664,132.2595,46.4733,154.084
1.8723,0.1426,0.0713,130.8626,53.229,152.4504
1.8464,0.1628,0.0911,128.9313,59.0534,149.9618
1.8323,0.1772,0.106,126.4351,63.1832,146.9542
1.812,0.1729,0.1096,123.0687,65.8397,143.3664
1.7959,0.1794,0.1252,120.626,66.8779,139.6565
1.7705,0.1982,0.155,116.8397,66.9237,135.313
1.7278,0.2273,0.1812,113.1527,66.2519,130.7481
1.6965,0.2463,0.2153,110.374,64.9924,126.7328
1.6548,0.2607,0.2537,108.0076,63.4275,122.8092
1.6238,0.2729,0.2759,106.145,61.313,119.2519
1.5854,0.2671,0.3113,104.855,58.626,116.3206
1.5439,0.2683,0.3582,104.229,55.6794,113.7481
1.5085,0.2568,0.3943,104.3282,52.5267,111.5878
1.4949,0.2502,0.4065,105.1527,49.6489,109.6412
1.4568,0.2346,0.4287,106.458,46.1985,108.3206
1.4124,0.2124,0.4695,108.4275,43.3588,107.2748
1.3816,0.1863,0.5088,111.0534,40.458,106.1069
1.3435,0.1772,0.5496,114.2214,36.9084,105.3588
1.303,0.1648,0.5845,117.3435,32.9389,104.9008
1.271,0.1643,0.6301,121.7176,28.6336,104.7557
1.2297,0.1721,0.6626,125.1145,23.6794,104.3435
1.2092,0.1716,0.6675,129.855,19.3359,104.6641
1.1887,0.1729,0.7024,135.1145,14.458,105.3435
1.1436,0.167,0.7251,140.3206,9.9542,106.0611
1.1238,0.1531,0.7378,145.8702,5.9695,107.5725
1.1001,0.1323,0.76,151.1908,2.0229,109.2901
1.0759,0.1084,0.77,156.8168,-1.3282,111.4885
1.0427,0.0769,0.7896,162.5954,-4.5954,113.2977
1.0278,0.0422,0.8025,168.7939,-7.4656,115.8321
0.9968,0.0151,0.7976,176.2214,-12.0076,118.8931
0.9851,-0.0144,0.7839,182.7176,-15.7634,121.2366
0.9839,-0.053,0.7388,191.1221,-19.7252,124.2443
0.9944,-0.0901,0.697,198.2137,-22.2977,127.2824
1.0195,-0.1035,0.6116,205.2824,-23.9008,130.2672
1.0479,-0.1375,0.5435,212.1832,-23.855,133.7405
1.0933,-0.1567,0.4565,218.7023,-22.626,137.4504
1.1108,-0.1724,0.4155,224.458,-20.6641,140.9466
1.1584,-0.1873,0.3325,229.4198,-17.1374,144.458
1.2107,-0.2068,0.238,233.5496,-11.9466,147.2137
1.2637,-0.2058,0.1526,236.8931,-5.4885,149.5573
1.3237,-0.196,0.0759,239.5114,1.7328,151.6336
1.3901,-0.1941,-0.0005,241.4275,9.7557,153.0076
1.4473,-0.1833,-0.0842,242.5267,17.8626,153.6641
1.5107,-0.1731,-0.1865,243.2137,26.7252,154.084
1.541,-0.1677,-0.2339,243.2519,35.313,153.7252
1.604,-0.165,-0.3423,242.4046,45.5038,152.4275
1.6692,-0.1387,-0.4219,240.4962,54.687,150.2366
1.6694,-0.1208,-0.4685,237.6183,62.7786,146.9313
1.6541,-0.1089,-0.4727,233.5954,67.1221,142.313
1.6724,-0.0886,-0.5154,228.6031,69.6489,136.8855
1.7087,-0.0515,-0.5989,223.0458,75.1985,131.1756
1.7378,-0.0022,-0.6189,216.687,82.9618,125.7786
1.6843,0.0315,-0.5547,209.6031,84.8779,119.7099
1.689,0.0496,-0.5615,201.9237,84.0382,112.7557
1.6873,0.0688,-0.6072,193.0153,84.5343,105.5191
1.6577,0.0715,-0.5679,184.5343,80.9847,98.2443
1.6318,0.0828,-0.5596,176.2519,75.7863,91.3206
1.6084,0.1052,-0.5569,168.2672,70.6947,84.2443
1.5701,0.1274,-0.521,160.4427,63.916,77.4275
1.5313,0.1582,-0.49,153.145,56.6412,70.8015
1.4875,0.1746,-0.4602,146.5954,49.1527,64.5878
1.4597,0.1812,-0.4358,140.6336,41.7023,59.2977
1.4268,0.1841,-0.4026,134.6718,32.229,53.8092
1.3894,0.1711,-0.3857,129.6183,23.5725,48.9084
1.354,0.1582,-0.3525,125.2824,14.5954,44.9924
1.3311,0.1399,-0.3362,120.6718,5.8626,41.2672
1.3022,0.1289,-0.3171,117.145,-3.0382,38.1756
1.2729,0.1199,-0.3005,115.1527,-11.7786,35.4885
1.252,0.1079,-0.2708,112.5649,-20.3053,33.4809
1.2454,0.106,-0.2444,110.2443,-28.1221,31.2901
1.2334,0.1072,-0.2129,108.6794,-35.5191,29.8321
1.2273,0.0979,-0.1902,107.3893,-41.9924,28.4809
1.2307,0.092,-0.1814,106.1374,-47.5649,27.084
1.2434,0.0779,-0.1787,105.5496,-52.2061,25.8931
1.2656,0.0537,-0.1716,105.6412,-55.6565,24.9084
1.2815,0.033,-0.1736,105.8855,-58.0763,23.8244
1.3149,0.0107,-0.177,106.771,-59.1527,22.4427
1.3401,-0.0032,-0.1924,108.0916,-59.4656,21.0687
1.343,-0.0132,-0.1746,109.7328,-58.1145,19.5649
1.3652,-0.0193,-0.1997,111.5954,-55.9542,18.0687
1.3896,-0.0254,-0.22,113.626,-52.855,16.2214
1.4072,-0.0227,-0.2261,115.3435,-49.5573,14.0305
1.4153,-0.0151,-0.2507,118.3664,-44.3053,10.9084
1.4421,-0.0132,-0.2888,119.6641,-39.2061,8.2595
1.448,-0.0078,-0.2949,120.9847,-34.4656,5.2519
1.4551,-0.0073,-0.3086,121.8244,-29.8168,2.1069
1.467,0.0046,-0.3289,121.3359,-25.4809,-0.313
1.4697,0.0088,-0.3511,121.542,-21.2748,-3.1221
1.4822,0.0237,-0.3784,122.6336,-16.9008,-5.6031
1.4993,0.0393,-0.4165,120.8168,-12.2519,-7.7634
1.5129,0.0481,-0.4546,119.4198,-7.4351,-10.3969
1.5139,0.0618,-0.4773,118.7405,-2.3969,-12.9924
1.5212,0.0789,-0.5308,117.6107,2.8626,-15.7252
1.5234,0.0845,-0.5554,114.3435,8.2977,-18.4886
1.521,0.1055,-0.6003,111.7023,13.5115,-21.687
1.5173,0.103,-0.6294,108.542,18.3511,-25.0153
1.4995,0.1089,-0.6606,104.9695,22.7405,-28.3282
1.4807,0.1165,-0.6812,101.1985,26.9466,-31.771
1.4729,0.1165,-0.6968,97.3664,30.2595,-35.5038
1.4424,0.1194,-0.7122,92.6947,33.855,-39.0076
1.4067,0.1287,-0.7307,88.2748,36.687,-42.3817
1.3628,0.1333,-0.7393,83.6107,38.9771,-45.8168
1.3047,0.144,-0.7471,79.1832,40.3359,-48.4351
1.249,0.1411,-0.7346,74.4885,41.2137,-51.0534
1.1719,0.1353,-0.7217,69.855,40.7634,-52.7099
1.1077,0.1357,-0.7092,65.4809,39.3664,-53.8321
1.0398,0.1289,-0.7117,61.0992,37.2061,-54.3893
0.9973,0.1274,-0.6892,56.6031,33.687,-54.145
0.9407,0.1353,-0.6577,52.2366,29.1221,-52.6412
0.8853,0.1504,-0.6389,47.8092,23.8244,-50.3969
0.8347,0.1528,-0.6064,43.5573,17.5573,-47.5725
0.7876,0.1782,-0.5806,39.1908,10.7252,-43.9695
0.7605,0.1687,-0.562,35.313,3.6565,-40.1756
0.7407,0.1782,-0.5461,31.5038,-3.5573,-35.5344
0.7302,0.1848,-0.5208,27.687,-10.7023,-31.1985
0.7144,0.1846,-0.5134,24.4122,-17.6718,-26.6489
0.7175,0.1775,-0.5042,21.3664,-24.8473,-22.084
0.7275,0.1677,-0.4978,18.4046,-31.2214,-18.2366
0.7334,0.1653,-0.4958,16.3282,-36.9389,-14.5573
0.7549,0.1521,-0.4883,14.4122,-42.5496,-11.3969
0.7847,0.1428,-0.4756,12.3511,-47.7481,-8.4275
0.811,0.1414,-0.4541,10.8855,-52.4427,-6.0076
0.845,0.1335,-0.4414,9.4427,-56.687,-4.2443
0.8809,0.1323,-0.4478,8.2901,-60.687,-2.8168
0.908,0.1284,-0.4438,7.0534,-63.7863,-1.9695
0.9434,0.1326,-0.4473,6.0458,-66.542,-1.3206
0.9907,0.1338,-0.4329,4.9542,-68.2595,-1.0992
1.031,0.1362,-0.4336,4.229,-69.084,-1.1527
1.0796,0.135,-0.4282,3.3511,-68.6489,-1.4351
1.1099,0.1348,-0.4414,2.8321,-67.5496,-2.3817
1.1553,0.137,-0.4373,2.2748,-65.4198,-3.6107
1.1777,0.135,-0.4302,1.8931,-62.3206,-5.3511
1.1951,0.1392,-0.438,1.542,-58.8779,-7.084
1.2161,0.1331,-0.4253,1.3817,-55.4962,-9.2901
1.2334,0.1326,-0.426,1.4122,-50.1756,-12.1832
1.2393,0.1401,-0.425,1.5954,-45.771,-14.5267
1.2444,0.1414,-0.4324,1.542,-40.9466,-16.5573
1.2437,0.1399,-0.4248,1.5115,-36.0534,-18.6947
1.2278,0.1392,-0.4268,1.4733,-30.6641,-20.4504
1.2141,0.1382,-0.4229,1.6947,-25.1221,-22.3588
1.1992,0.1428,-0.4236,1.5954,-19.5725,-24.0153
1.1682,0.1426,-0.4189,1.3893,-14.4275,-25.0534
1.1411,0.1438,-0.4131,1.2595,-9.5573,-26.1374
1.1179,0.1523,-0.4067,0.9237,-5.1145,-26.8092
1.1057,0.1509,-0.4111,0.7176,-1.1527,-26.6947
1.0767,0.1633,-0.3984,0.0916,2.3664,-26.374
1.0425,0.1646,-0.395,-0.3511,5.7557,-25.9313
1.0115,0.1616,-0.3894,-1.1985,8.458,-25.1145
0.9888,0.1609,-0.3855,-2.0992,11.0687,-23.8779
0.9683,0.166,-0.3826,-2.916,13.1298,-22.7939
0.9446,0.1575,-0.3687,-3.7786,14.6641,-21.7099
0.926,0.1501,-0.3611,-4.8092,15.5878,-20.2748
0.9185,0.1538,-0.3525,-5.771,16.0153,-19.3206
0.8975,0.157,-0.3555,-7.0763,15.7023,-18.2443
0.8787,0.155,-0.3276,-8.3588,14.5496,-16.9924
0.8696,0.157,-0.3242,-9.5649,13.0305,-16.1756
0.8572,0.1501,-0.3066,-10.855,11.2748,-15.4122
0.8477,0.1501,-0.2957,-11.8168,8.7176,-14.1679
0.8367,0.1465,-0.2769,-12.8092,6.3511,-13.2901
0.8315,0.135,-0.2651,-13.9847,3.4656,-12.7786
0.8237,0.1426,-0.2563,-14.9466,0.5115,-11.4962
0.8284,0.1389,-0.2485,-15.7328,-2.5191,-10.6183
0.8284,0.1392,-0.2314,-16.4733,-5.7863,-9.7557
0.8242,0.1367,-0.2119,-17.1527,-9.1145,-8.542
0.8318,0.1399,-0.2039,-17.5114,-12.6947,-7.3511
0.833,0.135,-0.1963,-17.8779,-15.9389,-6.6718
0.8411,0.1304,-0.1777,-18.1298,-19.2443,-5.4733
0.8433,0.124,-0.1648,-18.2748,-22.7557,-4.6794
0.8555,0.1377,-0.1609,-18.2137,-26.2519,-3.8931
0.856,0.1357,-0.1643,-18.1527,-29.2672,-3.2901
0.8687,0.1379,-0.1321,-18.1374,-32.3053,-2.687
0.8818,0.1448,-0.1379,-17.8321,-34.5954,-1.9313
0.8982,0.1484,-0.1418,-17.3893,-36.8473,-1.5878
0.9084,0.1482,-0.134,-16.9847,-38.8855,-1.0534
0.9304,0.1533,-0.124,-16.5496,-40.3588,-0.5573
0.9431,0.1489,-0.1301,-16.1145,-41.4962,-0.4198
0.9597,0.1477,-0.1262,-15.4427,-42.4275,-0.2061
0.97,0.1494,-0.1379,-14.7252,-42.4046,0.1374
0.989,0.1448,-0.1306,-13.8397,-42.1527,0.1221
1.0061,0.1523,-0.1353,-13.1832,-41.2824,0.0611
1.0222,0.1541,-0.1384,-12.3053,-39.8092,-0.1145
1.0347,0.1553,-0.1411,-11.3511,-37.7023,-0.5115
1.0483,0.1553,-0.1392,-10.5954,-35.1985,-0.9389
1.0608,0.1455,-0.1416,-9.9466,-32.4046,-1.2137
1.0593,0.1541,-0.1375,-8.9847,-29.0382,-1.7023
1.0664,0.155,-0.1436,-8.1069,-25.4656,-1.8397
1.0691,0.1619,-0.1509,-7.2519,-21.5344,-2.1603
1.0708,0.1567,-0.146,-6.1832,-17.2672,-2.7634
1.0713,0.1531,-0.146,-5.3282,-12.6489,-2.9084
1.0701,0.1543,-0.1448,-4.4656,-8.4733,-2.7176
1.0591,0.1487,-0.1514,-3.5878,-4.5038,-2.5191
1.0562,0.1504,-0.1519,-2.6107,-0.5802,-2.3817
1.0522,0.1565,-0.1475,-1.7481,3.2824,-2.4046
1.0415,0.1504,-0.1484,-1.1603,6.9313,-2.1908
1.0347,0.1628,-0.1555,-0.4427,10.2672,-1.6412
1.0303,0.1685,-0.1492,-0.1145,13.1985,-1.7252
1.0151,0.1694,-0.1511,0.0076,15.3664,-1.2214
1.0059,0.1675,-0.1414,0.2366,17.1374,-0.7405
1.0037,0.1636,-0.1357,0.0687,18.1298,-0.6412
0.9871,0.155,-0.1309,0.4427,18.6718,-0.6031
0.9824,0.1572,-0.1287,0.3359,18.8015,-0.4351
0.9722,0.1509,-0.126,0.3817,18.7557,-0.3817
0.9714,0.1523,-0.126,0.3588,18.4656,0.0
0.9651,0.1597,-0.1187,0.3206,17.8779,0.0916
0.9609,0.1606,-0.1179,0.1908,17.1527,0.0382
0.9575,0.1553,-0.124,-0.0382,16.1221,0.145
0.9509,0.1528,-0.1182,-0.0305,14.6947,0.3053
0.9534,0.1543,-0.1118,-0.2977,13.2901,0.2595
0.9414,0.1479,-0.1077,-0.5573,11.2214,0.4275
0.9324,0.1445,-0.1003,-0.5878,9.1832,0.5496
0.9255,0.1428,-0.1077,-0.542,6.8168,0.5802
0.9277,0.1472,-0.1128,-0.7634,4.3664,0.8092
0.9336,0.1497,-0.1042,-0.8244,1.8931,1.3206
0.9292,0.1526,-0.1086,-0.8397,-0.3893,1.4733
0.9277,0.1558,-0.1133,-1.1374,-2.6794,2.0534
0.9329,0.1565,-0.1035,-1.2137,-4.5191,2.7786
0.9399,0.1626,-0.1184,-1.2977,-5.9847,3.2977
0.9485,0.1575,-0.1177,-1.2977,-7.2901,3.8168
0.9551,0.1658,-0.127,-1.5267,-8.6641,4.542
0.9607,0.1746,-0.1331,-1.4504,-9.5573,5.084
0.978,0.1704,-0.1338,-1.458,-10.2595,5.374
0.98,0.1802,-0.1323,-1.5573,-10.9237,5.6412
0.9912,0.1807,-0.1387,-1.7481,-11.2748,6.1527
1.0039,0.1748,-0.1453,-1.7023,-11.5038,6.3664
1.0125,0.1816,-0.146,-1.687,-11.4809,6.5954
1.0227,0.1797,-0.1526,-1.7252,-11.4351,6.6336
1.0371,0.1775,-0.1619,-1.916,-11.3969,6.9618
1.0464,0.1768,-0.1655,-1.8626,-10.8626,6.9771
1.0657,0.1809,-0.1558,-1.9924,-10.4656,6.8855
1.0725,0.1809,-0.1631,-2.0763,-9.4733,6.6565
1.082,0.1736,-0.1667,-2.0763,-8.8321,6.6565
1.0862,0.1775,-0.1733,-2.2748,-7.7023,6.0992
1.0986,0.1785,-0.1667,-2.229,-6.458,5.7023
1.103,0.1729,-0.1663,-2.2137,-5.1069,5.6183
1.1147,0.1772,-0.1614,-2.1527,-3.7023,5.3817
1.1179,0.1731,-0.1697,-2.0382,-2.3053,4.9313
1.123,0.168,-0.1707,-1.9695,-0.7405,4.6947
1.1282,0.1689,-0.1565,-2.1527,0.7786,4.1679
1.1328,0.1663,-0.1604,-1.855,2.0611,3.8473
1.1328,0.1677,-0.1616,-1.7786,3.3435,3.2901
1.1294,0.1631,-0.1584,-1.8779,4.2748,2.9924
1.1353,0.1555,-0.157,-1.7099,5.2137,2.6031
1.1323,0.1519,-0.1538,-1.6031,5.9389,2.0611
1.1252,0.1523,-0.1509,-1.542,6.5267,1.3664
1.1279,0.1562,-0.1506,-1.4046,7.1374,0.8244
1.1206,0.1479,-0.1492,-1.2977,7.313,0.1908
1.1167,0.1409,-0.1472,-0.9695,7.1527,-0.2137
1.1096,0.147,-0.1538,-0.7481,7.2061,-0.9695
1.105,0.1455,-0.1379,-0.5649,6.7405,-1.2519
1.1074,0.1467,-0.1377,-0.6107,6.3359,-2.1145
1.1006,0.1453,-0.1472,-0.5115,5.7328,-2.5191
1.0952,0.1426,-0.1443,-0.2901,4.9084,-2.8397
1.0891,0.144,-0.1489,-0.4656,4.145,-3.1832
1.0811,0.1497,-0.1511,-0.687,3.2595,-3.9084
1.0786,0.1582,-0.1338,-0.6336,2.2748,-4.0458
1.0637,0.1538,-0.1453,-0.9771,1.1908,-4.3817
1.0662,0.1487,-0.1382,-1.2519,0.0534,-4.771
1.0574,0.1562,-0.1428,-1.4427,-1.2137,-4.9466
1.052,0.1506,-0.1462,-1.687,-2.2366,-5.2366
1.0449,0.1445,-0.1484,-1.7023,-3.2519,-5.2901
1.0342,0.1465,-0.1499,-1.6565,-4.1832,-5.0534
1.0295,0.1443,-0.1389,-1.8321,-4.855,-4.9695
1.0239,0.1472,-0.1414,-1.6489,-5.8015,-4.3664
1.0186,0.155,-0.1384,-1.5802,-6.6565,-3.9924
