ax,ay,az,gx,gy,gz
0.6653,-0.2913,0.4453,25.5038,-50.5725,144.7939
0.6697,-0.3169,0.4458,30.5878,-54.9695,146.313
0.6768,-0.3433,0.4558,35.7863,-59.0153,147.771
0.687,-0.3525,0.4592,41.5267,-63.3206,149.1832
0.6978,-0.3625,0.4551,47.1145,-67.8473,150.4733
0.7129,-0.3665,0.459,53.771,-72.7481,151.8397
0.7341,-0.3633,0.4441,59.9771,-77.458,152.9389
0.7573,-0.3621,0.4451,66.8626,-81.9847,154.3817
0.7854,-0.3557,0.4167,72.8855,-86.1069,155.8321
0.8071,-0.3579,0.4055,79.0687,-89.542,157.0382
0.8352,-0.3623,0.384,85.5954,-90.8931,158.1298
0.8621,-0.3489,0.3623,91.4733,-94.3282,159.4657
0.8845,-0.3374,0.3469,97.2824,-95.3359,160.8931
0.9038,-0.3413,0.3306,103.0916,-94.6794,162.4504
0.9309,-0.3315,0.3162,108.7786,-94.9313,163.8092
0.9707,-0.3215,0.2925,114.2366,-96.6489,164.9237
1.0051,-0.3186,0.2749,118.7405,-96.9771,166.8702
1.0374,-0.3176,0.2598,123.4351,-93.3664,168.5954
1.075,-0.3181,0.2312,129.2061,-92.7557,170.7481
1.1167,-0.3201,0.2173,134.0458,-90.3435,173.2443
1.1624,-0.3154,0.2107,138.5878,-85.0229,176.0
1.1743,-0.3223,0.2026,142.6794,-80.5191,178.5496
1.2356,-0.3254,0.1873,147.1069,-74.7863,182.145
1.2954,-0.3403,0.1729,151.3435,-69.0992,186.0
1.3669,-0.3525,0.1497,155.7481,-63.1832,189.9847
1.4529,-0.365,0.1296,160.3435,-56.9847,193.4351
1.5483,-0.3838,0.0901,164.7099,-49.4351,196.8931
1.6372,-0.3967,0.062,169.4886,-40.687,200.0076
1.7253,-0.4182,0.0298,173.8397,-30.6641,201.9847
1.8076,-0.4431,0.0105,177.7863,-20.3588,202.5573
1.8462,-0.4529,0.0051,181.4733,-9.9771,201.9313
1.9204,-0.4714,-0.0117,185.0229,0.7252,199.7099
1.9839,-0.4961,0.0083,187.9389,10.3282,196.1527
1.9999,-0.5061,0.019,190.6412,18.7328,191.7481
1.9999,-0.5137,0.0305,192.9847,26.1374,186.3206
1.9999,-0.5142,0.0562,194.9542,32.2366,179.9008
1.9999,-0.5142,0.0752,197.0992,37.145,173.3359
1.9999,-0.5203,0.0935,199.1145,40.1374,166.1603
1.9999,-0.5256,0.0986,200.9084,41.313,158.687
1.9999,-0.5359,0.113,202.8931,41.7786,151.3359
1.9999,-0.5447,0.1055,204.9847,41.2595,143.542
1.9999,-0.5554,0.0928,206.9695,39.3893,136.0687
1.9999,-0.5581,0.0835,208.7099,36.6489,128.9771
1.9999,-0.5652,0.0574,210.1832,33.374,121.9084
1.9999,-0.5637,0.0566,211.3893,28.7252,115.6336
1.9999,-0.5603,0.0474,211.8397,22.7405,109.6412
1.9999,-0.5613,0.0435,211.7939,16.4809,104.4427
1.9999,-0.5481,0.0276,211.0458,7.8244,98.4275
1.9999,-0.5366,0.0261,210.2748,-0.3282,93.6412
1.9999,-0.5396,0.0078,208.8397,-7.7176,89.2824
1.9999,-0.5457,-0.0029,206.7405,-14.8626,85.0382
1.9999,-0.5569,-0.0352,204.7252,-21.0763,81.0229
1.9999,-0.5603,-0.0557,202.3817,-26.374,77.3511
1.9999,-0.5852,-0.063,199.9008,-30.8015,73.1832
1.9999,-0.5879,-0.0854,197.2824,-34.9847,69.9771
1.9999,-0.5979,-0.0964,195.1832,-38.7252,66.9695
1.9999,-0.6047,-0.0989,192.9313,-42.1832,63.9542
1.9999,-0.6057,-0.1028,190.6641,-45.9542,61.5725
1.9999,-0.6079,-0.0959,188.7023,-48.9008,59.6031
1.9999,-0.6111,-0.0886,187.3359,-51.5496,57.0534
1.9999,-0.6194,-0.0833,185.9695,-53.8931,54.5573
1.9999,-0.6191,-0.0718,184.4809,-56.0763,51.8321
1.9999,-0.6367,-0.0569,183.2672,-57.9847,48.9389
1.9999,-0.6465,-0.0305,182.3969,-59.4275,45.0916
1.9999,-0.6519,-0.0195,181.9771,-60.0305,40.7939
1.9999,-0.6553,0.0007,181.6336,-60.374,35.6565
1.9999,-0.6755,0.0139,181.9008,-59.9466,30.084
1.9999,-0.686,0.0247,182.3282,-59.3588,24.2061
1.9999,-0.6987,0.0344,183.1603,-58.6336,17.8626
1.9999,-0.7104,0.0649,183.9084,-57.4198,11.0153
1.9999,-0.7266,0.0742,184.5496,-56.2824,3.7328
1.9999,-0.7412,0.0977,185.458,-55.0305,-3.6718
1.9999,-0.7498,0.123,186.3588,-53.6412,-11.2672
1.9999,-0.7703,0.1497,187.5343,-52.7328,-19.2061
1.9999,-0.78,0.1663,188.8931,-51.8702,-27.2748
1.9999,-0.7861,0.1636,190.2672,-49.8779,-34.8855
1.9999,-0.7969,0.1833,191.7863,-47.2748,-42.7328
1.9999,-0.8086,0.2031,193.6641,-45.626,-50.6794
1.9999,-0.8364,0.2437,195.7328,-44.3053,-58.5573
1.9999,-0.8499,0.2649,198.313,-42.6412,-67.1298
1.9999,-0.8713,0.2849,201.0382,-41.8321,-75.4885
1.9999,-0.8979,0.3074,203.9313,-41.3511,-83.3969
1.9999,-0.9136,0.3145,207.2366,-40.9847,-91.5878
1.9999,-0.9185,0.3252,210.5878,-40.7328,-98.5343
1.9999,-0.9404,0.3223,215.6031,-41.5725,-108.2901
1.9999,-0.9495,0.3201,219.9466,-41.7176,-115.5802
1.9999,-0.9595,0.3,224.5267,-42.3282,-122.8321
1.9999,-0.9614,0.2922,229.1374,-43.1756,-129.9618
1.9999,-0.9731,0.2549,234.1069,-43.6412,-136.8321
1.9999,-0.9727,0.23,238.4886,-43.7634,-143.6947
1.9999,-0.9763,0.189,242.9542,-43.7863,-150.6031
1.9999,-0.9722,0.1418,246.771,-43.3053,-157.2901
1.9999,-0.9666,0.1067,250.0687,-42.8702,-164.0076
1.9999,-0.958,0.0662,250.1298,-42.1221,-170.6336
1.9999,-0.9536,0.0244,250.1298,-41.4885,-177.2519
1.9999,-0.9387,0.0083,250.1298,-41.145,-183.7786
1.9999,-0.9255,-0.0195,250.1298,-40.9618,-190.5038
1.9999,-0.9109,-0.0576,250.1298,-41.3588,-196.7176
1.9949,-0.8967,-0.0825,250.1298,-41.7634,-202.7252
1.9675,-0.8821,-0.1028,250.1298,-42.5115,-208.2137
1.9255,-0.8792,-0.1328,250.1298,-43.458,-213.3512
1.8953,-0.8662,-0.1685,250.1298,-44.1985,-218.3817
1.8577,-0.8638,-0.1985,250.1298,-45.2595,-222.9389
1.8416,-0.8616,-0.2161,250.1298,-46.2214,-226.8092
1.8137,-0.853,-0.2385,250.1298,-47.6031,-231.3588
1.7908,-0.8489,-0.2671,250.1298,-49.1145,-235.3969
1.7686,-0.8396,-0.2932,249.9237,-50.7939,-239.458
1.7561,-0.8323,-0.3142,248.9389,-52.7634,-243.2672
1.7329,-0.824,-0.3547,247.4198,-54.4809,-247.5191
1.7246,-0.8125,-0.3792,246.2137,-56.4962,-250.1374
1.7112,-0.7986,-0.406,244.1374,-58.3664,-250.1374
1.6997,-0.7954,-0.4338,241.8626,-60.1221,-250.1374
1.6946,-0.7842,-0.4475,239.3053,-62.0,-250.1374
1.6787,-0.7847,-0.4783,236.1985,-63.5496,-250.1374
1.6646,-0.7661,-0.4971,232.8168,-65.3969,-250.1374
1.6428,-0.7544,-0.5176,229.0076,-67.6947,-250.1374
1.6267,-0.7432,-0.5325,224.626,-70.3206,-250.1374
1.6157,-0.7317,-0.5591,220.4198,-73.3817,-250.1374
1.6025,-0.7292,-0.5598,214.9084,-76.9924,-250.1374
1.584,-0.7104,-0.5791,209.9466,-80.9924,-250.1374
1.5759,-0.7007,-0.593,205.0534,-84.855,-250.1374
1.562,-0.6848,-0.5994,199.1603,-89.4122,-250.1374
1.5469,-0.6875,-0.626,193.4275,-92.8092,-250.1374
1.5308,-0.6736,-0.6426,187.2137,-96.3206,-250.1374
1.5227,-0.665,-0.6584,180.9084,-100.3588,-250.1374
1.5105,-0.6511,-0.6697,174.4427,-104.313,-250.1374
1.4905,-0.6326,-0.6953,167.542,-107.2366,-250.1374
1.4749,-0.6179,-0.7031,160.3664,-109.6489,-250.1374
1.4626,-0.6091,-0.7136,153.313,-112.0,-250.1374
1.4529,-0.6057,-0.707,145.9466,-114.0916,-250.1374
1.4407,-0.5977,-0.7161,138.5725,-115.3359,-250.1374
1.4272,-0.5876,-0.7266,130.9008,-116.1374,-250.1374
1.4033,-0.5789,-0.7271,123.1985,-115.9008,-250.1374
1.3921,-0.5815,-0.7402,115.687,-114.7939,-250.1374
1.3677,-0.582,-0.7363,109.0305,-113.1069,-250.1374
1.3511,-0.5823,-0.7393,101.4733,-110.687,-250.1374
1.3335,-0.5786,-0.7288,94.8168,-107.4962,-250.1374
1.3174,-0.5793,-0.7253,88.5725,-103.9084,-250.1374
1.291,-0.575,-0.717,80.8015,-98.5802,-250.1374
1.272,-0.5806,-0.6926,75.4733,-93.6947,-250.1374
1.2556,-0.5779,-0.6833,70.5191,-89.5573,-250.1374
1.2429,-0.5774,-0.6772,65.9542,-83.4504,-250.1374
1.2161,-0.5815,-0.6519,62.0305,-78.5343,-250.1374
1.1985,-0.584,-0.6428,58.542,-74.229,-250.1374
1.1819,-0.5845,-0.6316,55.2748,-69.9389,-250.1374
1.1599,-0.5847,-0.5984,52.4656,-66.8168,-250.1374
1.1326,-0.5862,-0.5813,49.9466,-64.6336,-250.1374
1.1172,-0.5937,-0.5828,47.9618,-62.9847,-250.1374
1.1028,-0.5925,-0.5723,46.0611,-61.6794,-250.1374
1.0938,-0.5977,-0.5659,44.6412,-61.145,-250.1374
1.0789,-0.5957,-0.5552,42.8473,-61.3664,-250.1374
1.0623,-0.5972,-0.5398,41.7481,-62.0153,-250.1374
1.0459,-0.5879,-0.5322,40.1374,-63.3053,-250.1374
1.031,-0.5767,-0.533,38.4275,-65.0611,-250.1374
1.0088,-0.5791,-0.5161,37.1603,-67.8244,-250.1374
1.0037,-0.5581,-0.51,35.8855,-70.8473,-250.1374
0.9895,-0.5486,-0.5105,34.229,-73.8702,-250.1374
0.9875,-0.5391,-0.5125,33.1908,-76.855,-250.1374
0.9648,-0.532,-0.5283,32.3053,-80.8626,-250.1374
0.9539,-0.51,-0.5549,31.7939,-84.9618,-250.1374
0.9451,-0.4915,-0.5647,31.0458,-89.0916,-250.1374
0.9329,-0.4712,-0.5852,30.4809,-94.7099,-250.1374
0.9204,-0.4504,-0.6191,29.7176,-97.9847,-250.1374
0.9124,-0.4233,-0.6497,28.7099,-101.2901,-250.1374
0.8884,-0.3911,-0.6829,27.3206,-106.1603,-250.1374
0.875,-0.3589,-0.7256,25.4198,-109.626,-250.1374
0.8711,-0.3433,-0.7354,23.0,-113.1985,-250.1374
0.8555,-0.3152,-0.7605,19.7099,-116.9084,-250.1374
0.8286,-0.2817,-0.79,15.9695,-120.7557,-250.1374
0.8105,-0.2466,-0.8135,12.0992,-124.9466,-250.1374
0.7966,-0.2092,-0.8398,7.374,-128.7863,-250.1374
0.7671,-0.1858,-0.8477,2.5496,-133.2366,-250.1374
0.7537,-0.1575,-0.8728,-3.4046,-138.313,-250.1374
0.7224,-0.1216,-0.8914,-9.0763,-143.1374,-250.1374
0.7117,-0.1128,-0.9038,-15.0153,-147.771,-250.1374
0.686,-0.0925,-0.9026,-21.9771,-152.9924,-250.1374
0.6694,-0.0737,-0.9094,-28.7634,-157.5038,-250.1374
0.6409,-0.071,-0.9294,-35.9771,-161.8244,-250.1374
0.6177,-0.072,-0.9292,-43.2214,-165.5191,-250.1374
0.5869,-0.0835,-0.9463,-50.6641,-168.6565,-250.1374
0.5562,-0.0984,-0.9446,-58.6031,-171.4809,-250.1374
0.5371,-0.1067,-0.9387,-66.0992,-174.3359,-250.1374
0.5059,-0.1201,-0.9304,-73.5267,-176.6718,-250.1374
0.4951,-0.1184,-0.9207,-80.4046,-178.8473,-250.1374
0.4731,-0.1067,-0.9155,-87.1679,-180.6183,-250.1374
0.4524,-0.0994,-0.8718,-93.4657,-182.0916,-250.1374
0.4329,-0.0874,-0.8457,-98.9466,-183.4962,-250.1374
0.4233,-0.0847,-0.8247,-103.626,-184.855,-250.1374
0.4143,-0.0864,-0.7961,-107.2672,-186.1145,-250.1374
0.408,-0.0911,-0.7688,-110.3511,-188.3512,-250.1374
0.4026,-0.1211,-0.7451,-112.2214,-190.7252,-250.1374
0.3984,-0.1257,-0.7266,-113.9237,-193.7557,-250.1374
0.3999,-0.1545,-0.7007,-114.8321,-197.4046,-250.1374
0.408,-0.1697,-0.6873,-115.2137,-200.5878,-250.1374
0.4109,-0.168,-0.6821,-114.8855,-204.0076,-249.7481
0.4089,-0.1628,-0.6587,-114.3206,-206.5267,-246.2748
0.4099,-0.1494,-0.6404,-113.6412,-209.229,-243.0382
0.4031,-0.1338,-0.6216,-112.3206,-211.8092,-240.229
0.3977,-0.1252,-0.6165,-111.2443,-214.9084,-238.4504
0.3967,-0.115,-0.6121,-110.4046,-218.1679,-236.7481
0.3911,-0.104,-0.5945,-108.9389,-221.2824,-235.3512
0.3782,-0.0845,-0.5913,-107.5802,-224.0687,-234.626
0.3625,-0.0728,-0.5984,-106.2977,-226.3588,-233.8092
0.3486,-0.0664,-0.5989,-105.0458,-228.5954,-233.2519
0.3176,-0.0532,-0.6084,-103.8244,-230.0992,-232.8244
0.3003,-0.0471,-0.6165,-102.4275,-231.4809,-231.9084
0.2847,-0.0432,-0.6223,-101.3588,-232.3053,-231.0916
0.2625,-0.0264,-0.6318,-100.1603,-232.9771,-229.9008
0.2317,-0.0139,-0.6528,-99.0229,-233.7099,-227.9924
0.1958,-0.0081,-0.6592,-98.1069,-234.2748,-225.5649
0.1738,0.0032,-0.6782,-97.374,-234.9084,-223.2137
0.1421,0.0117,-0.6829,-96.8473,-235.9389,-219.9389
0.1169,0.0273,-0.6965,-96.4504,-237.0229,-216.2901
0.0916,0.042,-0.7024,-96.145,-238.2977,-212.5343
0.0625,0.063,-0.7222,-96.2824,-239.8626,-208.4351
0.0581,0.0686,-0.7258,-96.5038,-241.4427,-204.3282
0.0427,0.092,-0.7336,-96.8092,-242.9466,-199.6183
0.0381,0.116,-0.7578,-97.3893,-243.3359,-194.7176
0.0308,0.1311,-0.792,-98.145,-243.2824,-189.9389
0.0354,0.1335,-0.8003,-99.0153,-243.3282,-185.1069
0.0322,0.1353,-0.8379,-100.5649,-243.0916,-180.5343
0.0457,0.126,-0.8706,-101.7557,-242.6947,-175.7939
0.0601,0.1301,-0.9045,-103.229,-241.9313,-171.3435
0.0649,0.123,-0.9214,-105.0458,-240.3435,-167.5496
0.0708,0.1138,-0.9631,-107.1374,-237.8321,-163.687
0.0833,0.1086,-0.9961,-109.9466,-234.9389,-160.4427
0.0793,0.1096,-1.0166,-112.7023,-231.313,-157.7023
0.0891,0.1111,-1.0425,-116.1908,-227.7328,-155.1527
0.0864,0.1023,-1.0486,-120.0763,-223.4198,-152.5878
0.0764,0.0901,-1.0664,-124.5802,-218.5191,-150.3053
0.0701,0.0942,-1.0769,-129.4122,-213.9771,-147.5343
0.0566,0.0867,-1.0637,-134.4046,-209.3206,-145.0458
0.0488,0.0896,-1.0674,-139.229,-204.855,-142.1756
0.0286,0.0908,-1.0498,-144.6794,-199.458,-138.687
-0.0017,0.1125,-1.0474,-149.9237,-194.2137,-135.687
-0.0266,0.1191,-1.0229,-154.5573,-188.6183,-132.3282
-0.052,0.1321,-1.0044,-158.7863,-182.7176,-128.458
-0.0859,0.1411,-0.9871,-163.0458,-176.855,-124.9389
-0.1155,0.1453,-0.9617,-166.7023,-171.1832,-121.4046
-0.155,0.1401,-0.9412,-170.0611,-165.7557,-117.2366
-0.1865,0.135,-0.9216,-172.9618,-160.2061,-113.2061
-0.1995,0.1282,-0.9104,-175.8321,-155.0687,-108.8092
-0.2334,0.1213,-0.8816,-178.1603,-150.0076,-104.3817
-0.2651,0.1147,-0.8545,-180.6031,-145.4809,-99.9466
-0.2986,0.104,-0.8298,-182.9771,-141.6718,-93.3588
-0.3381,0.1042,-0.8093,-185.0916,-137.7557,-89.9008
-0.3704,0.105,-0.7844,-187.9389,-133.3206,-82.5573
-0.3955,0.1094,-0.7537,-189.8931,-130.7023,-76.3893
-0.4236,0.1208,-0.7158,-191.4504,-128.6641,-70.4809
-0.4414,0.1218,-0.6965,-193.4809,-126.916,-64.313
-0.4607,0.1331,-0.6765,-194.916,-125.0229,-57.9466
-0.4832,0.137,-0.6411,-196.3206,-123.7634,-51.6565
-0.5039,0.1492,-0.6162,-197.3588,-122.4198,-45.4885
-0.5217,0.1531,-0.5925,-198.2901,-121.1069,-39.1298
-0.5339,0.1531,-0.5791,-199.1679,-120.3511,-33.1527
-0.542,0.1509,-0.5645,-199.6718,-119.5802,-27.0458
-0.562,0.1443,-0.5488,-200.2901,-118.7863,-20.7786
-0.5759,0.1458,-0.5308,-200.5725,-118.3206,-14.771
-0.5894,0.1509,-0.5222,-201.2366,-117.6718,-8.8092
-0.5945,0.1423,-0.4951,-201.6412,-117.3435,-2.7481
-0.6052,0.1472,-0.4805,-202.084,-116.8702,3.2137
-0.6106,0.1545,-0.4687,-202.9389,-116.6412,9.1603
-0.6155,0.1543,-0.4612,-203.5649,-116.4962,14.9771
-0.6208,0.1514,-0.4468,-204.5954,-116.7252,20.8931
-0.623,0.156,-0.4282,-205.6107,-116.8702,27.4733
-0.6238,0.1582,-0.4314,-206.771,-116.9924,33.4198
-0.6243,0.1514,-0.4092,-208.1221,-116.8931,39.6412
-0.6292,0.1497,-0.4043,-209.2443,-117.3282,45.6718
-0.6208,0.135,-0.4004,-210.5267,-117.8779,51.7405
-0.6184,0.1245,-0.3918,-211.9084,-118.3817,57.6947
-0.6101,0.1221,-0.3882,-213.2824,-119.2519,63.6565
-0.6045,0.1162,-0.3921,-214.6641,-120.6641,69.6336
-0.5937,0.104,-0.3801,-215.8473,-121.8473,75.4733
-0.5815,0.1147,-0.3784,-217.1756,-122.8779,80.8626
-0.5674,0.1079,-0.3628,-218.626,-123.9618,86.5343
-0.5586,0.0952,-0.3591,-220.1374,-125.4809,91.8015
-0.543,0.0791,-0.3469,-221.5725,-126.8015,96.542
-0.5225,0.0667,-0.3325,-223.0916,-128.0,102.0992
-0.5144,0.0542,-0.3315,-224.2977,-129.8168,106.3359
-0.5046,0.0466,-0.3276,-225.4657,-131.4962,110.0534
-0.489,0.0095,-0.3271,-227.0458,-133.5114,114.8931
-0.4724,-0.0249,-0.3228,-228.2137,-135.5725,119.4504
-0.4653,-0.0535,-0.3162,-229.2366,-137.8626,124.1527
-0.4412,-0.0681,-0.3088,-230.2519,-140.0992,129.2901
-0.4285,-0.0713,-0.303,-231.0992,-142.4275,134.9695
-0.4167,-0.0718,-0.2896,-231.8855,-144.3435,140.4962
-0.3997,-0.0688,-0.2732,-232.374,-145.4122,146.4198
-0.3833,-0.0522,-0.2637,-232.5954,-145.771,152.9237
-0.3706,-0.0461,-0.2583,-232.458,-145.6565,159.2824
-0.3552,-0.0378,-0.231,-232.313,-144.1679,165.5649
-0.3386,-0.0288,-0.209,-231.7939,-141.9313,171.7405
-0.3188,-0.0168,-0.2161,-230.9847,-138.9466,177.8244
-0.3096,-0.0254,-0.2141,-229.9313,-135.2824,183.5343
-0.2878,-0.0422,-0.2021,-229.2137,-131.1908,189.5343
-0.2803,-0.041,-0.2039,-227.9084,-126.8855,194.8779
-0.2751,-0.0344,-0.1902,-226.6794,-122.7634,200.0916
-0.2729,-0.0305,-0.1853,-225.5343,-119.3435,205.2519
-0.2751,-0.0212,-0.1743,-224.2824,-115.6565,210.5114
-0.2686,-0.0088,-0.1543,-223.2443,-112.3969,215.1527
-0.2742,-0.0015,-0.1353,-222.4046,-110.0763,220.0534
-0.269,-0.0046,-0.1277,-221.9389,-107.5802,226.145
-0.2668,-0.0054,-0.1165,-221.7863,-106.1069,230.9084
-0.2493,-0.0054,-0.1042,-221.8702,-105.4427,235.7863
-0.252,-0.0105,-0.0852,-222.7481,-105.1832,240.542
-0.2402,-0.0208,-0.063,-223.7023,-105.7176,245.1756
-0.2349,-0.0308,-0.0298,-224.8931,-106.458,249.8473
-0.2268,-0.0337,-0.011,-226.5267,-107.3206,250.1298
-0.2046,-0.0466,0.0188,-228.2901,-108.2366,250.1298
-0.198,-0.0518,0.0308,-230.1069,-109.1527,250.1298
-0.1838,-0.0598,0.075,-231.5725,-110.313,250.1298
-0.1638,-0.073,0.1099,-232.9313,-111.8015,250.1298
-0.1545,-0.083,0.1409,-234.3664,-112.8473,250.1298
-0.1338,-0.0972,0.1907,-234.9542,-114.2137,250.1298
-0.1086,-0.1121,0.241,-235.5191,-115.4885,250.1298
-0.1072,-0.1235,0.2861,-235.3435,-116.8855,250.1298
-0.0784,-0.1421,0.3298,-234.7939,-118.1145,250.1298
-0.0676,-0.1606,0.3547,-233.8244,-119.3435,250.1298
-0.042,-0.1714,0.4111,-232.0305,-120.7023,250.1298
-0.0225,-0.1917,0.4624,-229.4962,-121.6031,250.1298
0.0125,-0.2039,0.5229,-226.313,-122.0382,250.1298
0.0393,-0.2239,0.5747,-222.7176,-122.4122,250.1298
0.0728,-0.2297,0.6125,-218.229,-122.8779,250.1298
0.1133,-0.2371,0.6689,-213.2672,-122.1985,250.1298
0.158,-0.2539,0.718,-207.4351,-120.9847,250.1298
0.1753,-0.2607,0.7334,-201.3512,-119.0763,250.1298
0.2285,-0.2795,0.7769,-194.1221,-115.6031,250.1298
0.2673,-0.2917,0.8237,-186.3359,-111.7328,250.1298
0.2979,-0.3125,0.8496,-178.3512,-107.0916,250.1298
0.342,-0.3313,0.8706,-169.5343,-101.7557,250.1298
0.3682,-0.3462,0.9133,-160.3435,-95.5954,250.1298
0.3921,-0.3589,0.9392,-150.7252,-90.916,250.1298
0.4314,-0.3945,0.9597,-140.9389,-84.8855,250.1298
0.4375,-0.4141,1.0039,-130.5649,-80.4733,250.1298
0.4548,-0.417,1.022,-120.3588,-77.0382,250.1298
0.4968,-0.428,1.054,-108.8473,-75.0687,250.1298
0.5342,-0.4451,1.0642,-97.8244,-74.3206,250.1298
0.5828,-0.4434,1.083,-86.2901,-74.6107,250.1298
0.6487,-0.4397,1.0522,-74.3969,-74.9008,250.1298
0.7209,-0.4153,1.0061,-62.2672,-74.2214,250.1298
0.8086,-0.4167,0.946,-50.145,-72.8702,250.1298
0.9124,-0.4219,0.8901,-38.9618,-70.2443,250.1298
1.0046,-0.4121,0.8447,-29.1221,-66.8931,250.1298
1.061,-0.4072,0.8157,-20.4427,-62.2519,250.1298
1.1724,-0.3877,0.7932,-13.0992,-56.4046,250.1298
1.2766,-0.3616,0.7383,-6.9695,-49.3588,250.1298
1.3911,-0.342,0.7229,-1.9924,-41.687,250.1298
1.4866,-0.3145,0.6975,2.0076,-33.4275,250.1298
1.5852,-0.2925,0.6687,4.9084,-24.7023,250.1298
1.6809,-0.2751,0.6487,6.6794,-16.1069,250.1298
1.7612,-0.2693,0.6379,7.5954,-8.4198,250.1298
1.804,-0.2639,0.6348,7.626,-1.687,250.1298
1.8708,-0.2573,0.6394,7.1221,3.3664,250.1298
1.9312,-0.2576,0.6499,5.5802,7.2519,250.1298
1.9709,-0.251,0.6572,3.5649,10.3511,250.1298
1.9999,-0.2437,0.6643,0.9618,13.6947,250.1298
1.9999,-0.2322,0.6897,-1.8168,15.5191,250.1298
1.9999,-0.2136,0.7207,-4.8321,16.4351,250.1298
1.9999,-0.2007,0.76,-7.8702,16.084,250.1298
1.9999,-0.1851,0.8123,-10.9542,14.0611,250.1298
1.9999,-0.1648,0.8582,-13.6794,10.3893,250.1298
1.9731,-0.1648,0.9011,-16.2061,5.2137,238.1985
1.9429,-0.1531,0.9541,-17.916,-0.8092,226.3282
1.9211,-0.1499,0.9812,-19.1985,-7.7939,215.0534
1.8777,-0.1348,1.0283,-19.6947,-14.8321,205.4046
1.8335,-0.1147,1.0747,-19.4122,-22.0458,196.7328
1.8035,-0.1094,1.1157,-18.4504,-27.9313,189.1832
1.7612,-0.1118,1.1404,-16.5496,-33.1985,182.8855
1.7236,-0.1042,1.1572,-13.7176,-37.0458,178.4351
1.6885,-0.1074,1.1863,-10.0153,-39.4962,174.2672
1.6489,-0.1167,1.2119,-5.1908,-41.145,171.4046
1.6284,-0.1199,1.2214,0.2366,-41.6031,169.7481
1.5803,-0.125,1.2493,6.6336,-41.5496,168.8244
1.5408,-0.1267,1.2754,13.5344,-41.1221,168.3206
1.4929,-0.1257,1.3157,20.4733,-40.5496,168.9847
1.4434,-0.1145,1.3481,28.771,-40.4198,170.5878
1.4043,-0.1008,1.3853,37.2214,-40.687,172.9237
1.3665,-0.0935,1.3943,46.5038,-40.3053,175.9389
1.3362,-0.0989,1.4324,56.1985,-40.458,180.1069
1.3223,-0.1003,1.4385,66.313,-40.8397,184.6718
1.301,-0.1057,1.4375,76.9466,-40.8321,190.0992
1.2813,-0.1191,1.4434,87.5649,-41.4046,196.4809
1.2766,-0.1416,1.4294,98.7328,-41.6412,202.7405
1.2793,-0.1646,1.4204,109.8779,-41.9313,209.3588
1.2817,-0.1921,1.4019,122.8931,-42.3893,216.4198
1.2954,-0.2134,1.3855,132.6031,-42.7252,223.2443
1.3347,-0.259,1.3391,143.9618,-43.687,229.7786
1.3804,-0.2917,1.2957,155.2443,-45.2595,235.9847
1.4158,-0.3149,1.2676,166.6336,-47.1832,242.0534
1.4839,-0.3455,1.2007,177.6412,-49.2824,247.687
1.5679,-0.3738,1.126,188.4962,-51.0,250.1298
1.6553,-0.3823,1.0288,198.9237,-51.4504,250.1298
1.7529,-0.3909,0.9426,208.7023,-50.8473,250.1298
1.8508,-0.3977,0.8457,217.542,-48.8244,250.1298
1.949,-0.3979,0.7485,225.7252,-45.8168,250.1298
1.9999,-0.3943,0.676,232.9771,-41.4122,250.1298
1.9999,-0.3906,0.6345,238.3664,-36.7939,250.1298
1.9999,-0.3792,0.5447,243.1908,-31.3359,249.9008
1.9999,-0.3596,0.4849,246.5802,-26.1679,243.7099
1.9999,-0.3381,0.4241,248.9771,-21.1298,236.6488
1.9999,-0.314,0.3677,250.1298,-16.8397,228.0992
1.9999,-0.2937,0.3118,250.1298,-12.4733,219.3817
1.9999,-0.2651,0.2524,250.1298,-7.8702,209.6947
1.9999,-0.2397,0.1819,249.3969,-2.7176,200.2366
1.9999,-0.2266,0.1487,247.626,1.7405,191.0
1.9999,-0.2014,0.0903,245.2443,7.3588,180.3206
1.9999,-0.1753,0.0364,241.8779,12.7557,170.3206
1.9999,-0.1514,-0.0229,238.5191,17.4351,160.2824
1.9999,-0.1377,-0.0474,234.5267,22.1221,150.2977
1.9999,-0.1125,-0.0859,230.229,26.1374,140.4427
1.9999,-0.0879,-0.127,223.8931,30.0763,128.6641
1.9999,-0.0674,-0.1421,218.9237,32.1221,119.6183
1.9999,-0.0459,-0.1558,213.7481,33.1756,110.6107
1.9999,-0.0234,-0.1726,208.4046,33.6183,102.3053
1.9999,-0.0022,-0.1948,202.9237,33.6031,94.7786
1.9999,0.0232,-0.2148,197.3282,32.9924,87.6412
1.9999,0.0481,-0.2397,191.8397,31.9008,80.9924
1.9999,0.0486,-0.2429,186.2366,29.8931,75.6718
1.9617,0.073,-0.2515,180.8473,27.1221,70.771
1.894,0.0789,-0.2581,175.687,24.1985,66.7634
1.8279,0.0916,-0.2603,170.8397,20.7939,63.7634
1.7661,0.0969,-0.269,165.8473,17.1145,60.8931
1.7048,0.0967,-0.2708,161.3053,12.9542,59.1603
1.6438,0.0979,-0.2771,157.1298,8.9313,57.855
1.5957,0.0903,-0.2781,153.2672,4.8855,57.1985
1.574,0.092,-0.2947,149.4427,0.8626,56.8015
1.5208,0.0859,-0.2866,145.9237,-3.1527,57.2443
1.4807,0.0825,-0.2874,142.9466,-6.9924,58.1985
1.447,0.0793,-0.2769,140.0916,-10.8244,59.3206
1.4202,0.0867,-0.271,137.4198,-14.5954,61.313
1.3984,0.085,-0.2571,135.3282,-18.0611,63.8397
1.3745,0.0876,-0.2466,133.5343,-21.5725,66.4122
1.3667,0.0823,-0.2488,131.9542,-24.4046,69.6107
1.3596,0.0767,-0.2429,130.6641,-26.6107,72.1145
1.356,0.0698,-0.229,129.5114,-28.8168,75.1221
1.3567,0.0542,-0.2229,128.8779,-30.2214,77.7176
1.3577,0.0366,-0.2129,128.4427,-30.9847,80.0534
1.3689,0.0186,-0.1904,128.374,-31.5038,81.9313
1.3848,-0.001,-0.1963,128.6488,-31.2137,83.3511
1.3914,-0.0247,-0.1934,129.3969,-31.0687,84.7786
1.425,-0.0439,-0.1824,130.229,-30.5267,85.9542
1.4548,-0.0681,-0.2019,131.6412,-30.3282,86.8015
1.469,-0.0698,-0.1963,133.5496,-30.3969,87.5115
1.5132,-0.0872,-0.2065,135.6488,-30.0382,88.1221
1.5479,-0.0911,-0.2402,137.8779,-28.6641,88.084
1.6008,-0.1062,-0.2722,140.2519,-26.6336,87.7328
1.6423,-0.0979,-0.314,142.0458,-24.0534,86.5725
1.6895,-0.0955,-0.3494,143.6794,-21.0382,84.7557
1.7314,-0.0903,-0.3826,144.9008,-17.5649,82.4657
1.7661,-0.083,-0.4258,145.6031,-13.313,79.5802
1.7949,-0.0681,-0.4607,145.8168,-8.7863,75.6107
1.8083,-0.0654,-0.48,145.0534,-3.7481,70.9237
1.8325,-0.0518,-0.5103,143.4886,0.7786,66.2443
1.8503,-0.0425,-0.5388,141.7557,5.8397,60.8168
1.8547,-0.0359,-0.5574,139.2595,10.542,54.6183
1.8567,-0.0234,-0.5718,135.9542,14.7863,48.3206
1.8464,-0.0144,-0.5977,132.5191,18.687,41.9084
1.8296,-0.001,-0.6111,129.1221,22.2443,35.1603
1.801,0.0054,-0.6252,125.0992,25.5878,28.4886
1.7874,0.0117,-0.6316,119.5649,29.0763,21.8702
1.738,0.0173,-0.6396,116.7176,31.771,15.4962
1.6946,0.0278,-0.644,112.3359,34.313,10.0
1.6323,0.0403,-0.6484,107.4885,36.4198,4.6412
1.5806,0.0476,-0.6599,103.3435,37.8092,0.1832
1.5164,0.0503,-0.6482,98.2214,38.3511,-4.0458
1.4558,0.0537,-0.6335,93.7786,37.374,-6.9389
1.4021,0.061,-0.6274,89.7176,36.0611,-8.6412
1.3425,0.0603,-0.6316,85.7557,34.1145,-9.5267
1.2808,0.0515,-0.6196,82.1145,31.5191,-10.084
1.2354,0.0603,-0.6213,78.6031,28.5191,-10.229
1.1924,0.0569,-0.623,75.1603,25.1374,-9.8168
1.168,0.0554,-0.6196,72.0687,21.7863,-8.9084
1.1331,0.0527,-0.6079,69.0458,18.2824,-7.6947
1.0962,0.0593,-0.6045,66.4351,14.2366,-6.0916
1.0669,0.0632,-0.6062,63.5191,10.3969,-4.3817
1.0486,0.0625,-0.5823,60.687,5.9847,-2.0916
1.0308,0.0725,-0.5835,58.3893,1.7099,0.0916
1.0259,0.0757,-0.5972,55.8473,-2.2901,2.7634
1.0254,0.0728,-0.5833,53.5191,-6.2061,4.9237
1.0186,0.0767,-0.585,50.9389,-9.4427,7.7176
1.0295,0.0693,-0.5906,48.6641,-12.1221,9.9924
1.0344,0.0623,-0.583,46.4504,-14.8702,12.1298
1.0498,0.0642,-0.5811,44.1679,-16.6641,13.916
1.0637,0.0625,-0.573,42.0992,-18.1603,15.5496
1.0774,0.0522,-0.5793,39.8168,-19.2061,16.8702
1.094,0.0486,-0.5659,37.7099,-19.8931,17.9542
1.1111,0.0437,-0.553,35.4198,-20.542,18.6947
1.1211,0.0439,-0.5479,33.2901,-20.4886,18.9466
1.1338,0.0312,-0.5422,31.1985,-20.3206,19.2137
1.1545,0.0317,-0.5229,29.0687,-19.8702,19.3969
1.1614,0.022,-0.512,27.1985,-18.6031,18.7939
1.1714,0.0176,-0.4988,25.3282,-17.3511,18.6718
1.1755,0.009,-0.4778,23.7634,-16.2901,18.0153
1.1863,0.0017,-0.4639,22.4886,-15.084,17.3893
1.1855,-0.0049,-0.4434,21.1756,-13.5267,16.9313
1.1848,-0.0159,-0.4192,20.2443,-11.6718,16.3435
1.187,-0.0249,-0.4043,19.3282,-9.8931,15.9084
1.1902,-0.0271,-0.3894,18.5878,-8.2901,15.3664
1.1855,-0.0425,-0.3772,17.7863,-6.3817,14.7939
1.1826,-0.0479,-0.3472,17.4198,-4.9847,14.3359
1.1875,-0.0576,-0.3254,17.2519,-3.4656,13.7939
1.1785,-0.0659,-0.3052,17.2061,-2.0763,13.374
1.1829,-0.0671,-0.2822,17.4046,-0.6183,12.5038
1.1748,-0.0754,-0.2598,18.0229,0.5344,11.4504
1.1694,-0.0786,-0.2471,18.4886,1.7176,10.8321
1.1702,-0.0806,-0.2363,19.1145,2.6565,9.4275
1.1619,-0.0876,-0.2136,20.1221,3.2824,8.3359
1.1543,-0.0925,-0.2061,21.0458,3.7481,7.3588
1.1472,-0.0986,-0.2034,21.7786,3.7252,6.1221
1.147,-0.1013,-0.197,22.771,2.9389,4.9542
1.1399,-0.1006,-0.1826,23.8168,2.084,4.1527
1.1331,-0.0969,-0.1843,24.6031,1.145,2.8397
1.1338,-0.0981,-0.1865,25.4122,0.2672,1.9084
1.1265,-0.0867,-0.1978,26.1374,-0.5878,0.8397
1.1206,-0.0901,-0.2104,26.6565,-1.4504,-0.4351
1.1194,-0.0796,-0.2158,26.9847,-2.4809,-1.7099
1.1062,-0.0781,-0.2131,26.8168,-3.5954,-2.7634
1.1011,-0.0688,-0.2297,26.6947,-4.3435,-3.9771
1.0896,-0.0588,-0.2388,25.9847,-5.4198,-5.5725
1.0818,-0.0498,-0.2424,24.9924,-6.7786,-6.7176
1.0684,-0.0491,-0.2468,24.1985,-7.8702,-7.542
1.0542,-0.0452,-0.2593,23.3511,-8.6718,-8.1679
1.0488,-0.0469,-0.272,22.1985,-9.3893,-8.6947
1.0317,-0.0405,-0.2671,21.1374,-10.2061,-8.9771
1.0234,-0.0415,-0.2795,20.458,-10.7557,-9.1908
1.0183,-0.0432,-0.2878,19.4351,-11.2137,-9.0305
1.0095,-0.0449,-0.2908,18.4656,-11.8321,-8.4046
0.9956,-0.0461,-0.2981,17.458,-12.6641,-7.8626
0.9919,-0.0435,-0.2952,16.8092,-13.7252,-7.1908
0.9839,-0.0415,-0.3083,16.0458,-14.2977,-6.1908
0.9729,-0.0405,-0.2991,15.2824,-14.9542,-4.9237
0.9834,-0.0325,-0.3088,14.6183,-15.6336,-3.8168
0.9749,-0.032,-0.3,13.9924,-16.4962,-2.7786
0.9727,-0.0352,-0.3062,13.2901,-17.4122,-1.6412
0.9731,-0.031,-0.3054,12.6565,-17.7786,-0.4046
0.9788,-0.0225,-0.3047,11.9466,-18.6336,0.9008
0.9834,-0.022,-0.3069,11.2061,-19.0,2.0382
0.9917,-0.0142,-0.3086,10.6336,-18.9771,2.8015
1.0005,-0.0181,-0.3013,9.7863,-18.6947,3.8092
1.0073,-0.0171,-0.3098,8.7023,-17.9618,4.4122
1.0256,-0.0225,-0.3127,7.8397,-16.7405,5.7252
1.0325,-0.011,-0.3091,6.8779,-15.2366,6.4504
1.0388,-0.012,-0.3013,5.9771,-13.5649,7.3817
1.051,-0.0142,-0.3013,5.0305,-11.4275,8.3053
1.064,-0.0085,-0.2949,4.0916,-9.3359,8.9618
1.0647,-0.0164,-0.2847,3.3588,-7.2214,9.2519
1.0764,-0.0183,-0.2747,2.4885,-5.1527,9.8092
1.0842,-0.0144,-0.2539,1.8092,-3.0611,10.0153
1.085,-0.0229,-0.2422,1.4198,-0.9389,10.2977
1.0872,-0.0354,-0.2297,0.8931,0.8092,10.2519
1.0889,-0.0312,-0.2134,0.5115,2.1374,9.9313
1.0869,-0.0447,-0.2095,0.0153,3.7023,9.5878
1.0889,-0.0378,-0.2021,-0.0916,4.5496,9.458
1.0903,-0.0383,-0.1824,-0.6718,5.0611,8.7634
1.0869,-0.0439,-0.1653,-0.7405,5.5344,8.1985
1.0842,-0.0527,-0.1636,-0.8397,5.2519,7.5878
1.0852,-0.0493,-0.145,-0.5725,5.3511,6.5802
1.0798,-0.0564,-0.1382,-0.4351,4.7863,5.7939
1.0764,-0.0535,-0.1357,-0.2061,4.458,5.0687
1.074,-0.0566,-0.1367,-0.1221,4.0916,4.1374
1.0684,-0.0552,-0.1287,-0.0611,3.5115,3.1221
1.0588,-0.0479,-0.1265,0.0992,2.8855,2.4962
1.0571,-0.0542,-0.1147,-0.0687,2.1145,2.1908
1.0527,-0.0459,-0.1145,0.0458,1.4733,1.2824
1.0415,-0.0496,-0.1172,0.1069,0.7405,0.8855
1.031,-0.0452,-0.0994,-0.1756,0.1527,0.6412
1.0183,-0.0454,-0.1023,-0.1603,-0.7786,0.1069
1.0183,-0.0398,-0.0981,-0.5191,-1.3969,0.0763
1.0144,-0.0417,-0.103,-0.7405,-2.3282,0.0458
1.0093,-0.04,-0.1101,-0.8168,-2.9924,0.313
1.0007,-0.0398,-0.1213,-0.9084,-3.3588,0.2901
0.9963,-0.0393,-0.1208,-0.9695,-3.5954,0.8397
0.9902,-0.043,-0.1104,-1.1603,-3.9542,1.3435
0.979,-0.032,-0.1133,-1.2595,-3.8702,1.5344
0.9653,-0.0334,-0.1074,-1.2977,-4.0305,2.1069
0.9695,-0.0325,-0.1123,-1.2137,-4.3282,2.687
0.9573,-0.0283,-0.1079,-1.2824,-4.7863,3.084
0.9568,-0.033,-0.1062,-1.4198,-5.1298,4.1145
0.9524,-0.0254,-0.1082,-1.1679,-5.9695,5.0611
0.9495,-0.03,-0.0974,-1.2901,-6.6031,6.0992
0.9458,-0.0283,-0.0869,-1.2214,-7.3282,7.1679
0.9478,-0.0291,-0.0911,-1.0,-8.1069,8.1603
0.9485,-0.0278,-0.0916,-1.0153,-8.6412,8.8702
0.9487,-0.0308,-0.0769,-0.6107,-9.6565,10.1069
0.9661,-0.03,-0.0803,-0.4275,-10.626,11.3893
0.9749,-0.033,-0.0874,-0.4198,-11.2824,11.9313
0.978,-0.0308,-0.0718,-0.1679,-11.5649,12.9924
0.9827,-0.0266,-0.0691,0.2901,-11.7863,13.8168
1.001,-0.0288,-0.0769,0.4733,-11.9237,14.145
1.0159,-0.0291,-0.082,0.8321,-11.6718,14.7939
1.0342,-0.0334,-0.0937,1.0534,-11.5878,15.3359
1.0454,-0.043,-0.0876,1.313,-11.1145,15.3664
1.061,-0.0449,-0.0925,1.3969,-10.1374,15.2061
1.0808,-0.0366,-0.0977,1.5649,-9.4275,15.5115
1.1033,-0.0425,-0.1082,1.7328,-8.0992,15.542
1.1016,-0.0378,-0.1113,1.7252,-6.916,14.916
1.1174,-0.0391,-0.1162,1.7099,-5.374,14.3969
1.134,-0.0386,-0.1248,1.687,-4.0076,13.8168
1.1384,-0.0415,-0.1218,1.8702,-2.6489,12.7252
1.1484,-0.0383,-0.1233,1.7557,-1.0076,11.916
1.1504,-0.0396,-0.123,1.542,0.4198,10.771
1.1597,-0.0359,-0.1191,1.0382,1.6794,9.4198
1.1543,-0.0393,-0.1328,0.9771,2.8473,8.313
1.1484,-0.032,-0.1174,0.7939,3.8931,7.084
1.1516,-0.03,-0.1157,0.2366,4.7099,6.0611
1.1497,-0.0295,-0.1121,0.1679,5.4046,5.1603
1.1458,-0.022,-0.1167,-0.4275,6.0611,4.3511
1.1511,-0.0281,-0.1206,-1.0,6.8015,3.1832
1.1401,-0.0322,-0.1155,-1.5038,7.5496,2.3053
1.135,-0.0364,-0.1128,-1.6489,7.8855,1.7557
1.1279,-0.0374,-0.1082,-2.3664,8.145,1.2519
1.1179,-0.0396,-0.0923,-2.3588,8.5191,0.5878
1.1077,-0.041,-0.0867,-2.6031,8.8092,0.4275
1.103,-0.0439,-0.0898,-2.7176,8.5038,0.0687
1.093,-0.0471,-0.0811,-2.7939,8.0611,-0.4733
1.0837,-0.0425,-0.0635,-2.8015,7.6183,-0.6565
1.0762,-0.0432,-0.0562,-2.9008,7.1069,-0.8015
1.0696,-0.0447,-0.0625,-2.4962,6.2061,-0.771
1.0576,-0.0515,-0.0481,-2.229,5.4885,-1.0534
1.0532,-0.0515,-0.0381,-1.9771,4.4733,-1.3359
1.0454,-0.0593,-0.0457,-1.5496,3.5954,-1.2137
1.0415,-0.0566,-0.0471,-1.0,2.7557,-1.2061
1.0371,-0.0574,-0.0369,-0.2977,1.8015,-1.1527
1.032,-0.0583,-0.0479,-0.0458,1.0763,-1.0382
1.0186,-0.0591,-0.043,0.8931,0.1679,-0.3969
1.0181,-0.0632,-0.0352,1.5573,-0.4885,-0.2748
1.0103,-0.0574,-0.0503,2.1145,-1.4809,0.5725
1.0095,-0.0583,-0.0525,3.2366,-2.1145,1.3969
1.0098,-0.0498,-0.0559,3.7863,-3.1985,2.3359
