ax,ay,az,gx,gy,gz
0.1333,0.2993,0.1125,11.8015,-59.8855,147.0916
0.1145,0.2961,0.1023,15.4427,-62.9695,151.9389
0.1016,0.2961,0.0913,18.8779,-65.542,157.5267
0.0901,0.2803,0.0911,22.1145,-68.0,162.8397
0.0845,0.2673,0.0647,25.3282,-70.3511,168.3206
0.0862,0.2612,0.0569,27.916,-72.1832,174.3588
0.0869,0.2505,0.0613,30.3664,-74.0611,180.542
0.0881,0.25,0.0649,32.7405,-75.4962,186.9466
0.0923,0.2383,0.0701,34.5725,-76.5878,193.5954
0.1145,0.2271,0.0588,36.2519,-77.2977,200.3053
0.135,0.2205,0.0562,37.7863,-77.771,207.1679
0.1636,0.2031,0.0308,39.2824,-77.3206,214.3512
0.2083,0.1797,0.0222,40.3588,-76.7863,221.3282
0.2522,0.1604,0.0176,41.7023,-75.229,228.6031
0.3022,0.1487,0.0051,42.8397,-73.1603,235.313
0.3542,0.1357,0.0049,43.9695,-70.7328,242.7176
0.4116,0.1079,0.0042,45.1145,-67.9466,248.8626
0.4409,0.0959,0.0122,46.1298,-64.3588,250.1298
0.4963,0.0781,-0.0044,47.4046,-60.8397,250.1298
0.561,0.0654,-0.0095,48.5954,-56.855,250.1298
0.6155,0.0408,-0.02,49.6412,-52.458,250.1298
0.6772,0.0291,-0.0105,51.1679,-48.3206,250.1298
0.739,0.0095,-0.0154,52.6336,-44.2519,250.1298
0.7878,-0.0078,-0.0081,54.4275,-40.2901,250.1298
0.8455,-0.0203,0.0007,56.0229,-36.9389,250.1298
0.8784,-0.0244,0.0042,58.0916,-34.0458,250.1298
0.9368,-0.0432,0.0183,60.1145,-31.771,250.1298
0.9998,-0.0552,0.0205,62.4809,-30.1221,250.1298
1.0615,-0.0554,0.0278,64.7634,-28.7023,250.1298
1.1265,-0.0652,0.0312,67.1145,-26.8931,250.1298
1.2056,-0.0801,0.0073,70.1145,-24.5878,250.1298
1.2793,-0.0867,0.0046,72.374,-22.374,250.1298
1.3318,-0.0864,-0.0007,74.6031,-19.7557,250.1298
1.3904,-0.0957,-0.0081,76.9237,-16.3893,250.1298
1.439,-0.0894,-0.0139,78.9924,-12.8244,250.1298
1.4834,-0.1113,-0.0076,81.0,-9.7099,250.1298
1.5173,-0.1074,-0.0142,82.8321,-6.5038,245.084
1.533,-0.115,-0.0164,84.7863,-3.2977,238.2672
1.5627,-0.1189,-0.0071,86.4885,-1.0229,230.6488
1.582,-0.1155,0.011,87.6794,0.626,222.8702
1.5947,-0.1177,0.0215,89.0687,2.1603,215.1374
1.6082,-0.125,0.054,90.5878,2.7481,206.771
1.6167,-0.1292,0.0779,91.7023,2.3282,199.1374
1.6208,-0.1316,0.1079,93.1298,1.6412,191.5114
1.6079,-0.1287,0.124,94.5267,0.2977,184.1527
1.6125,-0.1272,0.1338,96.1145,-0.9847,177.7863
1.5977,-0.1165,0.1626,98.0076,-2.9847,170.9389
1.5781,-0.123,0.1895,100.1908,-4.8092,165.0305
1.563,-0.125,0.2131,102.626,-6.6718,159.1221
1.5391,-0.1292,0.2466,105.4809,-8.9847,153.8321
1.52,-0.1475,0.27,108.5343,-11.626,148.6947
1.4973,-0.1663,0.2859,111.9847,-14.3282,144.4046
1.469,-0.1724,0.3281,115.5038,-17.0305,140.1298
1.4548,-0.178,0.3372,119.4733,-19.4504,136.7328
1.4373,-0.1892,0.3643,123.5802,-22.7557,133.8168
1.4199,-0.1914,0.3889,127.145,-25.1832,131.3512
1.3977,-0.2012,0.3994,131.5878,-27.8321,129.0305
1.3855,-0.207,0.4263,135.9313,-29.8015,127.9847
1.3674,-0.2126,0.4326,140.542,-31.313,126.7252
1.3625,-0.2219,0.4548,144.8855,-32.8626,125.8473
1.3628,-0.2256,0.4519,149.3282,-33.5191,125.7634
1.3601,-0.2439,0.47,153.6718,-34.0076,126.1603
1.3628,-0.2495,0.4687,157.8626,-34.3053,126.313
1.3748,-0.2646,0.4631,162.2824,-33.7939,127.2824
1.3909,-0.2876,0.4656,166.4122,-32.5344,128.2366
1.4214,-0.3147,0.4614,170.8931,-31.1679,129.0916
1.438,-0.3491,0.4517,175.1908,-29.3817,130.3512
1.4812,-0.3779,0.4377,179.5267,-27.0458,131.6488
1.5286,-0.4092,0.4438,184.6488,-24.0611,132.771
1.5762,-0.4382,0.416,189.5878,-20.7939,133.9695
1.6387,-0.4565,0.3909,194.5496,-16.542,135.0992
1.6719,-0.4656,0.3811,199.9542,-11.2519,136.0534
1.7273,-0.4817,0.343,205.1985,-5.2977,136.6107
1.792,-0.4893,0.3171,210.3588,1.2824,136.7023
1.8503,-0.5083,0.2954,215.3435,8.1603,136.6641
1.9111,-0.5293,0.2776,220.1908,14.5954,135.5114
1.9666,-0.5532,0.2678,224.4198,20.5496,134.0611
1.9999,-0.5618,0.2405,228.8015,26.4275,132.0687
1.9999,-0.5715,0.2244,232.8473,31.1603,129.313
1.9999,-0.5671,0.2139,236.8931,35.3893,126.2595
1.9999,-0.5535,0.1943,241.4046,39.3359,122.4275
1.9999,-0.552,0.1677,245.4809,42.4733,118.1221
1.9999,-0.5413,0.1284,248.9542,44.4122,113.5573
1.9999,-0.5417,0.0776,250.1298,46.3053,107.8168
1.9999,-0.5339,0.0327,250.1298,48.2519,99.3511
1.9999,-0.5222,0.0205,250.1298,49.2061,91.6489
1.9999,-0.5137,-0.0024,250.1298,49.8321,83.3969
1.9999,-0.5051,-0.0439,250.1298,49.5496,74.4885
1.9999,-0.5054,-0.064,250.1298,48.313,64.9084
1.9999,-0.4868,-0.0659,250.1298,46.1374,54.4427
1.9999,-0.4761,-0.0925,250.1298,43.084,43.8626
1.9999,-0.4614,-0.1008,250.1298,38.8931,32.3664
1.9999,-0.4446,-0.1035,250.1298,34.3511,20.458
1.9999,-0.4277,-0.1121,250.1298,29.6565,8.2443
1.9999,-0.4182,-0.1309,247.2824,25.3282,-4.8473
1.9999,-0.417,-0.1372,244.3664,20.6565,-18.2061
1.9999,-0.4207,-0.1484,241.1908,15.3664,-31.3053
1.9999,-0.4285,-0.1519,238.0534,9.687,-44.9008
1.9999,-0.427,-0.1404,234.8626,3.0763,-58.9771
1.9999,-0.4194,-0.1501,232.0229,-2.7023,-71.229
1.9999,-0.4177,-0.1619,229.1527,-9.4733,-85.1374
1.9999,-0.4089,-0.1692,226.6412,-15.2595,-98.1221
1.9999,-0.4126,-0.1746,224.3664,-20.9389,-109.4962
1.9999,-0.4089,-0.2024,222.2595,-25.7328,-121.6336
1.9999,-0.4128,-0.2231,219.9771,-29.916,-133.4733
1.9999,-0.4209,-0.251,218.1756,-33.2977,-144.1756
1.9999,-0.4353,-0.2639,216.229,-36.4733,-154.687
1.9999,-0.4385,-0.2808,214.3435,-38.5878,-164.313
1.9999,-0.4395,-0.2991,212.2137,-40.4962,-174.6794
1.9999,-0.4438,-0.3096,210.2595,-42.2443,-183.542
1.9999,-0.4341,-0.3284,208.3588,-43.3817,-191.7634
1.9999,-0.4387,-0.333,206.6412,-44.2901,-199.7557
1.9999,-0.4229,-0.3601,204.5267,-44.5191,-206.8397
1.9999,-0.4265,-0.3687,202.7481,-43.8931,-213.8244
1.9999,-0.4114,-0.3938,201.0305,-42.7176,-220.2901
1.9999,-0.4062,-0.3962,199.3359,-41.2061,-225.7557
1.9999,-0.4067,-0.4062,197.7023,-39.5115,-231.1832
1.9999,-0.3943,-0.4155,196.1527,-37.687,-236.3359
1.9999,-0.3933,-0.418,194.2519,-35.8397,-240.6488
1.9999,-0.3872,-0.4111,192.7023,-34.4351,-244.8855
1.9761,-0.3826,-0.4119,191.3969,-32.9008,-248.6488
1.9312,-0.377,-0.4026,189.7099,-31.6336,-250.1374
1.8992,-0.3728,-0.406,188.5114,-30.1679,-250.1374
1.8645,-0.3865,-0.407,187.2977,-28.9466,-250.1374
1.8511,-0.3848,-0.4106,186.4657,-27.9695,-250.1374
1.8179,-0.3965,-0.418,185.8855,-26.5725,-250.1374
1.7861,-0.4011,-0.4207,185.0687,-25.5725,-250.1374
1.7627,-0.4136,-0.4309,184.9084,-25.1069,-250.1374
1.7324,-0.4146,-0.4399,184.6031,-24.6641,-250.1374
1.7197,-0.4043,-0.4551,184.6488,-24.9237,-250.1374
1.699,-0.3804,-0.459,184.5649,-25.3359,-250.1374
1.6963,-0.3594,-0.4844,184.4886,-26.0153,-250.1374
1.6858,-0.3469,-0.4939,184.6031,-26.8092,-250.1374
1.6863,-0.3311,-0.5117,184.5038,-27.7557,-250.1374
1.689,-0.3232,-0.5515,184.0534,-28.7099,-250.1374
1.6765,-0.3079,-0.574,183.2443,-29.8092,-250.1374
1.6782,-0.292,-0.6064,181.8702,-30.7939,-250.1374
1.6836,-0.2729,-0.6414,179.855,-31.6031,-250.1374
1.6821,-0.2527,-0.6677,176.7481,-32.3969,-250.1374
1.6807,-0.2185,-0.7002,172.5878,-33.084,-250.1374
1.6875,-0.209,-0.7451,168.7176,-33.3969,-250.1374
1.6851,-0.1858,-0.7554,163.9771,-32.9084,-250.1374
1.6914,-0.1692,-0.7935,159.5114,-32.2977,-250.1374
1.6902,-0.1514,-0.8015,154.6565,-30.7863,-250.1374
1.6843,-0.1406,-0.8162,149.7252,-28.9618,-250.1374
1.6792,-0.1182,-0.8452,145.1832,-26.4351,-250.1374
1.6648,-0.1079,-0.8643,140.3053,-22.8092,-250.1374
1.6536,-0.0911,-0.8862,135.4427,-18.4122,-250.1374
1.6252,-0.0789,-0.8965,130.4809,-12.8092,-250.1374
1.593,-0.0713,-0.9048,126.2977,-7.1374,-250.1374
1.5642,-0.0759,-0.9282,122.1069,-1.2595,-250.1374
1.5176,-0.0784,-0.9355,119.0458,4.8931,-250.1374
1.4949,-0.0754,-0.939,115.1069,10.374,-250.1374
1.4426,-0.0601,-0.9451,111.8168,16.2519,-250.1374
1.3848,-0.0518,-0.9414,109.0687,21.5191,-250.1374
1.3262,-0.0386,-0.9402,106.084,25.9618,-250.1374
1.2534,-0.0154,-0.9453,103.3664,30.3817,-250.1374
1.1892,-0.0039,-0.959,100.4962,33.8855,-250.1374
1.1179,0.0234,-0.9629,97.9237,36.7405,-250.1374
1.0544,0.0532,-0.957,95.3282,38.7099,-250.1374
0.9751,0.0732,-0.9631,92.9008,39.7481,-250.1374
0.9419,0.0916,-0.9509,90.4351,40.3282,-250.1374
0.8821,0.1252,-0.9485,87.5802,40.2672,-250.1374
0.8162,0.1536,-0.9558,84.916,39.7863,-250.1374
0.7588,0.1809,-0.9519,81.9771,38.916,-250.1374
0.7029,0.1943,-0.9365,78.9313,37.229,-250.1374
0.6448,0.2234,-0.9299,75.8779,35.0534,-250.1374
0.5916,0.251,-0.9126,72.4504,32.3435,-250.1374
0.542,0.27,-0.9097,68.9084,28.8015,-250.1374
0.52,0.2834,-0.8887,64.9618,25.0916,-250.1374
0.4622,0.2952,-0.8694,60.6947,19.1374,-250.1374
0.425,0.3096,-0.8552,56.4351,12.687,-250.1374
0.4001,0.3289,-0.8489,51.9237,6.2748,-250.1374
0.3752,0.3359,-0.8455,47.3588,-1.4122,-250.1374
0.364,0.3496,-0.843,42.7099,-9.9084,-250.1374
0.3437,0.363,-0.8323,37.9466,-18.8702,-242.3359
0.334,0.3867,-0.8364,33.2214,-27.6183,-233.6107
0.3188,0.4036,-0.8171,28.8015,-35.9466,-226.0153
0.3232,0.4255,-0.8154,23.6641,-44.9542,-217.8931
0.3274,0.4321,-0.8191,18.5573,-53.0687,-210.626
0.3391,0.4465,-0.8215,13.7634,-60.8931,-204.084
0.3516,0.4482,-0.8433,8.5649,-68.313,-198.0
0.3638,0.4456,-0.8525,3.4504,-75.7786,-192.687
0.3738,0.4294,-0.8516,-1.3817,-83.916,-188.2214
0.3975,0.418,-0.8606,-7.1832,-92.0458,-183.7557
0.4092,0.4082,-0.8589,-12.1679,-100.458,-180.3359
0.4324,0.4097,-0.8701,-18.0,-110.4351,-177.1069
0.4495,0.4146,-0.8677,-23.3435,-118.542,-174.7252
0.4509,0.4204,-0.8586,-28.6336,-126.3435,-172.9618
0.458,0.4321,-0.8564,-34.9618,-134.3435,-171.5114
0.4644,0.438,-0.8628,-40.8779,-141.4046,-170.6947
0.4763,0.429,-0.8538,-47.1679,-148.7328,-170.6488
0.4758,0.4333,-0.8362,-54.7557,-157.8321,-170.916
0.4761,0.4287,-0.813,-61.4046,-166.6565,-171.0534
0.4707,0.4268,-0.7776,-67.5343,-175.1145,-171.5343
0.4702,0.4233,-0.7712,-73.1145,-183.6031,-171.9924
0.4731,0.4287,-0.7473,-78.229,-192.3282,-172.3282
0.478,0.4209,-0.7212,-83.4122,-200.5573,-172.6412
0.4824,0.4175,-0.7002,-87.6641,-208.9389,-172.9695
0.4856,0.4131,-0.686,-91.4198,-217.1374,-173.0229
0.509,0.4019,-0.6787,-94.7786,-224.2748,-173.4275
0.5063,0.4058,-0.6775,-97.5878,-230.9008,-173.3588
0.5227,0.3955,-0.6848,-99.9237,-236.1527,-173.9924
0.5498,0.3938,-0.6902,-101.7405,-239.8473,-174.5191
0.5596,0.3821,-0.7117,-103.1832,-242.2824,-175.1145
0.5728,0.3809,-0.7212,-104.1679,-243.6947,-175.7786
0.5801,0.3743,-0.7354,-104.7481,-244.4351,-177.1679
0.5847,0.3577,-0.739,-105.2366,-244.5573,-178.0153
0.5823,0.3367,-0.759,-105.7252,-244.3512,-179.1679
0.5793,0.3191,-0.7551,-105.8092,-243.5267,-180.4275
0.5786,0.249,-0.77,-105.9237,-242.5954,-181.4733
0.5837,0.1802,-0.7622,-105.8015,-241.3206,-181.5802
0.6008,0.1282,-0.7754,-105.5191,-239.687,-181.8397
0.6128,0.1094,-0.7749,-105.0687,-236.8855,-181.3435
0.6462,0.115,-0.7769,-103.8779,-231.8626,-180.4657
0.6636,0.1365,-0.7805,-102.4427,-225.0534,-179.1374
0.6865,0.1658,-0.7773,-100.3511,-216.3664,-178.1527
0.7046,0.1902,-0.7781,-98.0458,-205.6336,-177.2901
0.7185,0.1936,-0.7971,-95.229,-194.4122,-175.9771
0.7239,0.2019,-0.8047,-91.8321,-180.7863,-174.8397
0.73,0.2036,-0.8064,-88.5573,-168.0916,-173.9466
0.7253,0.1975,-0.7791,-85.4046,-155.7863,-172.6336
0.7104,0.1995,-0.7607,-82.0458,-144.0916,-171.6565
0.6931,0.1995,-0.7441,-78.4962,-132.7099,-170.6718
0.6729,0.2092,-0.7317,-75.4046,-122.0763,-169.6794
0.645,0.2136,-0.74,-72.3817,-112.7481,-168.8397
0.6199,0.2244,-0.7297,-69.3206,-103.3053,-167.855
0.6106,0.2368,-0.7317,-67.0,-95.0153,-166.3969
0.5759,0.2546,-0.7449,-64.9847,-88.3664,-165.4198
0.5483,0.2759,-0.73,-63.1603,-81.7252,-163.7863
0.519,0.3035,-0.7378,-61.9924,-76.8626,-161.8321
0.47,0.3206,-0.7478,-61.3969,-72.9618,-159.9542
0.4341,0.345,-0.7671,-61.2137,-69.8626,-158.3053
0.3909,0.3662,-0.7756,-61.3893,-67.9313,-156.1985
0.3467,0.3872,-0.7839,-62.2824,-66.9542,-154.7786
0.3267,0.4009,-0.7854,-63.2748,-67.4275,-153.084
0.2891,0.4207,-0.791,-64.6412,-69.2595,-151.5267
0.2588,0.4375,-0.792,-66.3817,-72.5954,-150.3359
0.2205,0.4561,-0.7922,-67.5496,-77.458,-149.0153
0.2,0.4771,-0.8074,-69.4351,-83.4962,-147.6107
0.1685,0.5029,-0.8079,-71.1603,-92.1145,-146.5038
0.1411,0.5183,-0.8206,-73.2214,-101.4198,-145.8702
0.1147,0.5496,-0.842,-75.1985,-111.7557,-145.5954
0.1042,0.5544,-0.8608,-77.8244,-122.5878,-145.5649
0.0876,0.5725,-0.8752,-81.1603,-135.4809,-146.4046
0.0681,0.5962,-0.9006,-84.6641,-147.7863,-147.8321
0.0435,0.6453,-0.9114,-89.0,-163.8931,-149.9313
0.0339,0.6711,-0.916,-92.8321,-176.855,-152.1145
0.0251,0.7041,-0.9185,-96.6489,-190.3206,-154.4046
0.0144,0.7266,-0.9226,-100.5802,-205.0687,-156.5954
0.0063,0.7192,-0.9543,-104.5725,-219.6107,-158.9542
0.0059,0.7205,-0.9766,-108.9313,-233.5114,-161.2824
0.0068,0.7065,-1.0093,-113.7481,-246.3664,-163.6107
0.0161,0.6882,-1.0505,-118.2672,-250.1374,-165.5191
0.0117,0.6423,-1.0781,-123.0,-250.1374,-167.2824
0.0056,0.6104,-1.0913,-127.7634,-250.1374,-168.6412
0.0027,0.5269,-1.1238,-133.8015,-250.1374,-169.1756
-0.0063,0.4382,-1.1326,-140.0153,-250.1374,-169.2443
-0.0051,0.3767,-1.147,-145.9237,-250.1374,-168.4046
0.0247,0.3486,-1.1887,-152.1374,-250.1374,-165.6565
0.0562,0.3601,-1.2148,-157.9237,-250.1374,-161.6336
0.0874,0.4177,-1.207,-163.1832,-250.1374,-156.1756
0.126,0.4712,-1.2166,-167.8321,-240.1985,-148.9084
0.1328,0.5054,-1.1953,-171.3053,-225.4122,-141.1679
0.1614,0.5312,-1.1689,-174.7328,-206.0305,-131.4733
0.168,0.5134,-1.1426,-177.2977,-188.4351,-122.3664
0.1396,0.4919,-1.0684,-179.8015,-174.0229,-113.8244
0.1682,0.4775,-1.1094,-181.7557,-156.0611,-105.8702
0.218,0.438,-1.1592,-182.8626,-133.2672,-97.4427
0.2544,0.4141,-1.1655,-183.6183,-107.374,-88.1145
0.2163,0.3977,-1.0645,-184.084,-86.4427,-79.1985
0.2351,0.3755,-1.0427,-184.2519,-66.3588,-71.3282
0.1934,0.3643,-1.0054,-184.4809,-46.0305,-63.229
0.2166,0.3789,-0.9265,-184.1985,-29.1527,-55.1603
0.1807,0.4043,-0.8589,-183.4046,-14.5191,-47.2137
0.1433,0.4001,-0.8235,-182.4427,-1.6641,-39.5191
0.1426,0.4343,-0.7522,-180.8321,6.9618,-31.1985
0.0989,0.4492,-0.7009,-179.0458,13.3893,-23.9924
0.0747,0.4587,-0.6729,-177.3664,18.6336,-17.5038
0.0513,0.4641,-0.6323,-175.5114,21.9542,-11.2977
0.0542,0.4651,-0.6377,-174.3664,23.0763,-6.5038
0.0337,0.4717,-0.595,-172.9847,22.5802,-2.1527
0.0107,0.467,-0.5654,-172.4657,21.0382,0.916
-0.0034,0.4839,-0.5261,-172.458,17.7328,3.4275
-0.021,0.4954,-0.5078,-172.5496,13.2443,4.5954
-0.033,0.5081,-0.4839,-172.8397,7.2214,5.4962
-0.0471,0.5247,-0.4463,-173.0992,-0.1985,5.7863
-0.0615,0.5503,-0.4075,-173.2977,-8.6336,5.5649
-0.0735,0.573,-0.3806,-173.6488,-18.0458,4.3588
-0.0671,0.5881,-0.4014,-173.855,-28.0763,3.2595
-0.0659,0.6091,-0.3679,-174.145,-38.374,1.8702
-0.075,0.6174,-0.3503,-174.6565,-49.5191,-0.0305
-0.0815,0.6311,-0.3398,-175.2595,-60.9924,-2.0916
-0.0947,0.6318,-0.3345,-175.9389,-72.5725,-4.4656
-0.0942,0.6282,-0.3301,-176.5725,-84.9008,-6.8015
-0.094,0.6211,-0.3203,-177.6183,-96.0458,-8.6947
-0.0942,0.624,-0.3269,-178.5267,-111.1527,-11.0305
-0.0798,0.6248,-0.3433,-179.7557,-123.4351,-12.6794
-0.0686,0.6104,-0.3547,-180.916,-137.3969,-14.0763
-0.0549,0.6057,-0.3669,-182.2214,-150.0687,-15.4656
-0.0261,0.6016,-0.3877,-183.9466,-161.2443,-16.6718
0.0,0.593,-0.406,-185.9618,-172.2061,-17.8855
0.0198,0.5801,-0.4248,-188.0153,-179.4275,-19.0687
0.0505,0.5764,-0.4653,-189.7634,-184.1374,-20.0382
0.0798,0.5752,-0.4861,-191.9695,-186.855,-20.5344
0.104,0.5659,-0.4963,-193.6794,-188.0305,-20.3817
0.1204,0.5369,-0.5042,-195.4657,-187.7176,-20.6489
0.1282,0.4941,-0.5344,-197.4886,-186.0763,-20.1832
0.1323,0.4272,-0.5388,-199.5191,-182.9542,-19.2061
0.1448,0.396,-0.5525,-202.0763,-178.9084,-18.1527
0.1418,0.3472,-0.5608,-204.6565,-173.6107,-16.458
0.1533,0.3318,-0.5496,-207.0153,-167.2748,-14.0229
0.1624,0.3396,-0.5278,-209.3893,-159.3282,-11.1221
0.1614,0.3694,-0.5127,-211.3588,-150.0,-7.3969
0.1643,0.3972,-0.4683,-212.9847,-139.6488,-3.0153
0.1514,0.4001,-0.4258,-214.3969,-128.4351,1.9542
0.155,0.4067,-0.4019,-215.5496,-116.3664,7.0763
0.1511,0.4028,-0.3962,-216.5573,-103.7328,12.9237
0.1497,0.4097,-0.3594,-217.1679,-90.6794,19.2137
0.1367,0.4109,-0.3135,-217.5954,-79.5267,25.2137
0.1309,0.4048,-0.2778,-217.916,-68.1832,31.5267
0.1057,0.3955,-0.2263,-217.7252,-58.7023,38.0992
0.083,0.3987,-0.1917,-216.9847,-50.0305,43.9008
0.0669,0.3899,-0.1541,-216.5267,-42.5802,49.7557
0.0518,0.3816,-0.1204,-215.3969,-36.1069,55.5038
0.0254,0.386,-0.0706,-214.1832,-31.0611,60.9695
0.0159,0.3906,-0.0557,-212.8779,-27.7634,65.4733
-0.0022,0.3872,-0.0032,-211.2443,-25.4351,70.5573
-0.0244,0.3979,0.0449,-209.458,-24.7176,74.7023
-0.0388,0.4119,0.0967,-207.4275,-25.2748,78.626
-0.0615,0.4307,0.1323,-205.3359,-26.8168,81.7557
-0.084,0.4382,0.1711,-202.687,-29.2595,84.3893
-0.0916,0.4451,0.2161,-200.084,-33.0611,86.2901
-0.0989,0.4551,0.2407,-197.0458,-38.0458,88.2977
-0.1213,0.4602,0.2747,-193.855,-44.3206,89.6107
-0.1311,0.457,0.3083,-190.458,-51.4504,90.5267
-0.1301,0.4839,0.3464,-186.9008,-59.9008,91.9695
-0.1423,0.4846,0.3665,-183.313,-68.4733,92.7863
-0.145,0.4773,0.3735,-179.7481,-77.0687,93.4809
-0.1355,0.4763,0.3921,-176.3664,-85.8473,94.3588
-0.124,0.4897,0.3989,-172.9847,-95.7557,95.3206
-0.1074,0.4917,0.3943,-169.8702,-101.9313,96.2519
-0.0869,0.5007,0.3796,-166.626,-108.7023,97.1298
-0.0781,0.5015,0.3796,-163.8702,-114.2748,98.1908
-0.0586,0.5024,0.3677,-161.1374,-119.4122,99.1603
-0.0334,0.4875,0.3669,-158.4886,-123.5878,100.4885
-0.0134,0.4724,0.3401,-155.9618,-127.3435,102.084
0.0159,0.4707,0.3247,-153.5038,-130.2672,103.2748
0.0293,0.4778,0.3047,-150.9542,-132.2214,104.5038
0.0454,0.4717,0.2925,-148.5267,-133.9084,105.5115
0.0718,0.4548,0.2874,-146.1298,-134.916,107.2824
0.0889,0.4353,0.2515,-143.626,-135.0687,109.2519
0.1064,0.4263,0.2324,-141.7023,-133.7939,110.7328
0.1204,0.406,0.2156,-139.626,-131.3053,112.1221
0.1252,0.3728,0.1968,-137.5191,-126.771,114.2061
0.123,0.3445,0.1938,-136.0305,-121.4046,116.3893
0.1235,0.3289,0.2026,-134.8092,-115.1985,118.6947
0.1072,0.3145,0.2139,-134.1527,-109.8397,121.2748
0.0889,0.2976,0.2437,-133.145,-104.0,124.5878
0.0579,0.2964,0.2629,-132.3588,-98.5343,128.6488
0.0337,0.2874,0.2896,-131.1679,-95.229,132.7328
0.0042,0.2798,0.3252,-129.916,-91.2137,138.0229
-0.0222,0.2805,0.3577,-128.1908,-86.3969,143.7252
-0.0261,0.2771,0.376,-126.1832,-83.2443,149.5191
-0.042,0.2722,0.4124,-123.374,-79.5573,157.1221
-0.0588,0.2715,0.4485,-120.6718,-76.1527,164.6412
-0.0674,0.269,0.4819,-117.5343,-72.6412,172.1985
-0.0681,0.2507,0.499,-114.4657,-69.0611,180.1527
-0.0576,0.2346,0.5178,-111.0076,-65.9618,188.7023
-0.0378,0.2256,0.5283,-107.3435,-62.6565,197.4504
-0.0212,0.2327,0.5542,-103.5496,-59.0458,205.8473
0.0024,0.2344,0.5815,-99.7557,-55.4962,214.5954
0.0173,0.2339,0.5942,-95.6641,-51.7176,223.8473
0.0476,0.2334,0.5957,-91.2748,-47.2977,232.6718
0.0747,0.2302,0.6033,-87.4046,-42.9313,240.6794
0.1165,0.2192,0.6157,-83.3053,-38.4351,248.4427
0.155,0.2092,0.6228,-79.5038,-33.9618,250.1298
0.188,0.1965,0.6372,-75.4885,-29.5496,250.1298
0.2219,0.1934,0.6555,-71.9237,-25.5954,250.1298
0.2627,0.1941,0.6663,-68.2748,-22.1603,250.1298
0.281,0.1985,0.6729,-64.6107,-19.6183,250.1298
0.3086,0.2029,0.6958,-60.8092,-17.0611,250.1298
0.3442,0.2073,0.7083,-57.5191,-15.0382,250.1298
0.3687,0.2112,0.7129,-53.9389,-13.4809,250.1298
0.3967,0.2192,0.7378,-50.4046,-13.0153,250.1298
0.4224,0.2202,0.7546,-47.1145,-13.3893,250.1298
0.4343,0.2107,0.7678,-43.8397,-14.542,250.1298
0.4561,0.2085,0.7747,-40.5649,-17.0763,250.1298
0.4819,0.2107,0.7925,-37.1603,-19.9771,250.1298
0.5,0.2026,0.7964,-34.0763,-23.3511,250.1298
0.5049,0.2102,0.7798,-30.8931,-25.8168,250.1298
0.5347,0.2205,0.7917,-27.7634,-27.916,250.1298
0.542,0.2227,0.8081,-24.9924,-30.5954,250.1298
0.5701,0.23,0.8257,-22.0,-32.8855,250.1298
0.5864,0.2437,0.8313,-19.2595,-34.1908,250.1298
0.6057,0.2505,0.8459,-15.9924,-35.1985,250.1298
0.6262,0.2529,0.8618,-12.7786,-35.5802,250.1298
0.6343,0.2542,0.8655,-9.4046,-35.916,250.1298
0.6392,0.2439,0.8931,-5.8015,-35.6031,250.1298
0.6455,0.2432,0.9124,-2.1985,-35.8931,250.1298
0.6514,0.2312,0.9475,1.7023,-36.4504,250.1298
0.6448,0.2173,0.9839,5.6718,-36.7405,250.1298
0.6379,0.1919,1.0122,10.0687,-37.3206,250.1298
0.6384,0.1711,1.0371,14.9542,-37.6641,250.1298
0.6387,0.1536,1.0737,20.0076,-37.8626,250.1298
0.6453,0.1243,1.0918,25.1374,-38.5191,250.1298
0.6531,0.1013,1.1233,30.8015,-38.2214,250.1298
0.6533,0.0854,1.1477,36.6641,-38.1374,250.1298
0.6587,0.0315,1.1689,45.0916,-37.2519,250.1298
0.6638,-0.0017,1.208,52.3664,-36.3053,250.1298
0.6702,-0.0229,1.2341,59.6336,-35.4504,250.1298
0.6746,-0.0505,1.2693,67.4122,-34.5344,250.1298
0.6831,-0.0542,1.2756,75.4122,-33.6565,250.1298
0.6953,-0.0791,1.3049,83.7481,-33.1985,250.1298
0.7126,-0.1008,1.322,92.3053,-32.8092,250.1298
0.7515,-0.135,1.3289,101.4504,-33.0382,250.1298
0.8022,-0.1616,1.3154,111.4504,-33.3282,250.1298
0.8645,-0.1992,1.303,122.1221,-33.4122,250.1298
0.9312,-0.2305,1.2444,132.687,-32.4656,250.1298
0.9978,-0.2627,1.2085,143.7634,-30.7099,250.1298
1.0239,-0.2732,1.1956,155.0076,-27.5649,250.1298
1.1089,-0.3076,1.1404,166.2519,-23.5114,250.1298
1.1785,-0.3159,1.1106,176.9618,-18.8931,250.1298
1.2512,-0.333,1.0642,186.9618,-14.2824,250.1298
1.3279,-0.3379,1.0342,197.0687,-10.0458,250.1298
1.3989,-0.3457,1.0146,205.916,-7.855,250.1298
1.4844,-0.3503,0.9495,214.0458,-5.1756,250.1298
1.5547,-0.3452,0.8982,222.0687,-1.1145,250.1298
1.6274,-0.3245,0.8481,229.0153,3.2901,250.1298
1.665,-0.3176,0.8291,235.5114,7.9008,250.1298
1.7397,-0.293,0.7773,241.1908,12.3969,250.1298
1.8049,-0.2771,0.7407,245.8626,16.5878,250.1298
1.8606,-0.2644,0.6912,249.5649,20.5038,250.1298
1.9128,-0.2549,0.6729,250.1298,23.3511,250.1298
1.9568,-0.2346,0.6592,250.1298,25.145,250.1298
1.9966,-0.2151,0.6331,250.1298,25.6412,250.1298
1.9999,-0.1963,0.6135,250.1298,24.9695,250.1298
1.9999,-0.1777,0.5969,250.1298,23.2977,250.1298
1.9999,-0.1533,0.5779,250.1298,20.5573,250.1298
1.9999,-0.1353,0.5552,250.1298,17.3053,247.8321
1.9999,-0.1167,0.5474,250.1298,12.6947,236.1298
1.9999,-0.0994,0.5305,250.1298,7.4046,224.4046
1.9999,-0.0774,0.5049,248.4275,1.4733,212.542
1.9999,-0.0637,0.4897,246.1374,-5.084,199.3512
1.9999,-0.0642,0.4651,244.1832,-11.2061,186.9237
1.9999,-0.0664,0.4556,242.4504,-16.8092,175.7099
1.9999,-0.0706,0.4158,240.5573,-22.7863,163.1298
1.9999,-0.0796,0.3784,239.0305,-27.5496,151.374
1.9999,-0.0811,0.3369,237.8397,-32.0534,140.4198
1.9999,-0.084,0.2981,236.8321,-36.0687,130.3588
1.9999,-0.0803,0.2424,236.1985,-39.5573,120.8473
1.9999,-0.0679,0.199,235.5954,-42.4198,112.1985
1.9999,-0.0515,0.1487,235.2061,-44.458,104.7863
1.9999,-0.0261,0.0967,235.2672,-45.8855,97.4962
1.9999,-0.0188,0.0764,234.9924,-46.2672,91.2519
1.9999,-0.0076,0.0154,234.9542,-45.9695,85.7634
1.9999,0.0154,-0.0322,234.5649,-44.8626,80.229
1.9999,0.0359,-0.0896,234.2366,-42.7405,74.9313
1.9999,0.0637,-0.1409,233.4351,-40.3511,69.8168
1.9999,0.0811,-0.1995,232.374,-37.7328,65.2519
1.9999,0.1077,-0.2556,230.9313,-34.7176,60.5191
1.9999,0.1279,-0.3125,229.2595,-31.2443,56.0153
1.9999,0.137,-0.3354,227.145,-27.4962,51.5115
1.9999,0.1553,-0.4165,224.145,-21.687,45.9618
1.9999,0.158,-0.46,221.4351,-16.626,41.7405
1.9999,0.1729,-0.5054,218.2977,-10.9542,37.5802
1.9999,0.1687,-0.5222,214.9847,-5.3664,32.9618
1.9999,0.1863,-0.5479,211.2214,0.4198,28.3588
1.9999,0.2107,-0.5642,207.5649,5.9542,24.458
1.9999,0.2468,-0.5723,203.2824,10.6947,19.8397
1.9999,0.2715,-0.5659,199.3053,14.7099,15.542
1.9999,0.2935,-0.5793,195.458,18.2214,11.0305
1.9999,0.3267,-0.5937,191.3282,21.3053,6.5038
1.9999,0.3396,-0.6174,187.0763,24.4275,1.9466
1.9999,0.3521,-0.615,183.1069,27.0305,-2.9924
1.9999,0.3679,-0.6335,179.1145,29.5725,-8.1832
1.9999,0.3743,-0.6511,175.0229,31.4046,-13.5267
1.9999,0.3811,-0.6653,170.4504,33.0229,-19.7634
1.9856,0.3862,-0.7019,166.1756,33.9313,-25.3969
1.9465,0.4053,-0.7131,161.6412,34.7176,-30.6794
1.8938,0.4111,-0.7366,157.1908,35.5344,-35.7252
1.8394,0.4255,-0.7478,152.5191,35.9466,-40.4046
1.7903,0.4321,-0.7617,147.5725,36.2672,-44.5267
1.7603,0.4404,-0.7693,142.4657,36.3588,-48.0
1.7009,0.45,-0.79,137.2595,36.626,-50.8779
1.6418,0.4724,-0.7986,131.8168,36.4198,-52.9466
1.5862,0.4788,-0.8005,126.4122,36.1908,-54.0916
1.5354,0.4929,-0.8018,120.8473,35.7939,-54.8015
1.4856,0.5103,-0.8208,115.9237,35.2824,-54.9618
1.4314,0.5229,-0.8047,110.5573,34.9466,-54.6718
1.3804,0.5334,-0.8145,105.0992,34.3664,-53.9924
1.3567,0.5432,-0.8142,99.9847,33.4351,-52.5954
1.3191,0.5552,-0.803,95.0,32.3282,-51.2137
1.2883,0.5613,-0.7981,90.0763,31.145,-49.4122
1.2585,0.5671,-0.8025,85.1985,29.6336,-47.1908
1.2256,0.5696,-0.8059,80.6489,28.0382,-44.9084
1.2063,0.5728,-0.8071,76.2519,26.3359,-43.0
1.1958,0.5686,-0.8059,71.9389,25.0458,-40.4656
1.1868,0.5652,-0.7979,67.7099,23.5267,-38.5344
1.166,0.5618,-0.7991,63.8321,21.9084,-36.855
1.1641,0.5522,-0.8044,59.7405,20.5878,-35.0076
1.1509,0.5552,-0.8105,55.9008,19.1832,-33.5267
1.1472,0.54,-0.8113,52.3511,17.916,-32.3206
1.1536,0.5278,-0.8069,48.5802,16.6412,-31.3511
1.1448,0.5107,-0.804,44.7786,15.7176,-30.542
1.1392,0.4949,-0.7905,41.229,14.7863,-30.1298
1.1387,0.4707,-0.7727,37.6107,13.2366,-29.4962
1.1379,0.467,-0.7468,33.8855,11.5115,-29.1603
1.1355,0.4668,-0.728,30.0916,9.374,-29.0611
1.1389,0.4702,-0.6953,26.9924,7.3053,-28.7328
1.1472,0.4697,-0.675,23.8779,5.1221,-29.0153
1.1509,0.4646,-0.6506,21.0305,2.9618,-29.3206
1.1455,0.4497,-0.6492,18.6031,1.0458,-29.8702
1.1472,0.4478,-0.616,16.4886,-0.4198,-30.687
1.1492,0.4426,-0.6057,14.5573,-1.5573,-32.1221
1.1465,0.4382,-0.5796,12.8168,-2.916,-33.6183
1.136,0.4319,-0.5696,11.5878,-4.0153,-35.0916
1.124,0.4189,-0.5381,10.4733,-5.0153,-37.0611
1.1116,0.418,-0.5264,9.7863,-6.0305,-38.6641
1.0945,0.4148,-0.5083,9.229,-7.1374,-40.084
1.0806,0.4194,-0.4954,8.8397,-7.9695,-41.2672
1.0552,0.4084,-0.4861,8.7634,-8.9847,-42.2748
1.0393,0.4004,-0.4814,8.3435,-9.7023,-42.8244
1.0195,0.4001,-0.4675,8.4198,-9.9008,-43.1603
1.0166,0.397,-0.4727,8.4504,-9.7939,-42.6412
0.9958,0.4128,-0.4661,8.5573,-9.7099,-41.8626
0.9648,0.417,-0.4724,8.5878,-9.2519,-40.7557
0.9543,0.4285,-0.45,8.5038,-9.0534,-39.4962
0.9385,0.4395,-0.4456,8.4427,-8.6107,-37.7405
0.9207,0.4463,-0.4507,8.2595,-8.3511,-35.5573
0.9043,0.448,-0.4502,8.084,-7.9847,-33.4046
0.8899,0.4551,-0.4482,7.5649,-8.1603,-31.0153
0.8752,0.4465,-0.4446,7.0611,-8.3969,-28.5191
0.8743,0.4519,-0.4524,6.2824,-9.0458,-26.4122
0.8757,0.4458,-0.4482,5.4122,-9.7863,-24.1527
0.8638,0.4385,-0.4385,4.5344,-10.7557,-21.8702
0.8604,0.4392,-0.4434,3.6489,-11.7176,-19.8092
0.8667,0.4358,-0.4431,2.6565,-12.9771,-18.145
0.8765,0.4292,-0.4438,1.5878,-14.0763,-16.7099
0.8708,0.4207,-0.4502,0.3359,-15.2672,-15.313
0.8713,0.4199,-0.4434,-0.6489,-16.2443,-14.6412
0.8853,0.4141,-0.4492,-1.7481,-17.1603,-13.9618
0.8933,0.4075,-0.4441,-2.6947,-18.2443,-13.4733
0.8967,0.4084,-0.4492,-3.9237,-19.313,-12.6336
0.9021,0.4094,-0.4529,-4.8092,-19.8092,-12.6183
0.9063,0.4114,-0.4407,-5.7481,-20.0458,-12.313
0.9158,0.4133,-0.449,-6.6489,-20.0382,-12.0763
0.9216,0.4194,-0.4473,-7.7252,-19.6336,-12.2519
0.9287,0.4133,-0.4495,-8.7481,-18.6794,-12.0916
0.9373,0.4072,-0.4448,-9.8015,-17.4046,-12.2595
0.9414,0.3948,-0.4492,-11.1374,-15.9313,-12.4962
0.939,0.3892,-0.4485,-12.6718,-13.855,-12.1756
0.9392,0.3906,-0.4351,-13.855,-12.0153,-12.0229
0.9463,0.3862,-0.426,-15.3817,-9.7634,-11.6794
0.9519,0.3862,-0.4099,-16.6794,-7.5878,-11.5267
0.9534,0.3875,-0.3931,-17.7176,-5.4198,-11.1908
0.9563,0.3875,-0.3735,-18.7099,-3.0458,-10.4122
0.9509,0.3855,-0.356,-19.3206,-0.4046,-10.0153
0.9495,0.3845,-0.3413,-19.9924,1.8779,-9.4809
0.9509,0.3755,-0.3169,-20.3664,4.4962,-9.0
0.9465,0.3662,-0.2908,-20.6107,6.9008,-8.8015
0.9458,0.3594,-0.2852,-20.9313,8.7176,-8.5115
0.9312,0.3552,-0.2532,-20.9466,10.145,-8.1221
0.9136,0.3552,-0.2234,-20.3435,10.9389,-7.8855
0.9089,0.3479,-0.2109,-19.7634,11.5267,-8.1832
0.9019,0.3555,-0.1677,-19.2214,11.229,-7.542
0.8923,0.3538,-0.1526,-18.1985,10.5191,-7.5954
0.8723,0.3557,-0.116,-17.3053,9.3282,-7.4427
0.8704,0.3513,-0.0908,-16.2824,8.0,-7.2595
0.8682,0.3557,-0.0913,-14.9542,6.2977,-7.0992
0.8594,0.3564,-0.0737,-13.6641,4.4046,-6.9847
0.842,0.3591,-0.0645,-12.1221,2.1069,-6.313
0.8364,0.3542,-0.0518,-10.5725,-0.0153,-5.8397
0.8335,0.3584,-0.0505,-9.2824,-2.1832,-5.4962
0.8269,0.364,-0.0459,-8.0916,-4.3664,-4.7786
0.8228,0.3643,-0.0486,-6.7023,-6.3817,-4.0229
0.8286,0.3757,-0.0491,-5.6565,-8.4504,-3.1679
0.8291,0.3745,-0.0503,-4.8626,-10.3206,-2.1145
0.8289,0.3772,-0.0513,-3.8626,-12.1374,-0.855
0.8345,0.387,-0.0566,-3.1527,-13.5115,0.1221
0.8413,0.3821,-0.0532,-2.2366,-14.6947,1.3817
0.8464,0.3828,-0.0698,-1.6565,-15.6336,2.6718
0.8562,0.377,-0.0779,-1.1221,-16.1603,3.7328
0.8704,0.3767,-0.1035,-0.687,-16.5496,4.5573
0.8752,0.3774,-0.1035,-0.3206,-16.5725,5.7099
0.8943,0.3789,-0.1292,-0.0763,-16.2748,6.5115
0.8975,0.3796,-0.1123,-0.0534,-15.9695,6.687
0.9089,0.3879,-0.1279,-0.0229,-15.855,7.2901
0.9124,0.3835,-0.1523,-0.3817,-15.4046,7.3511
0.9189,0.3835,-0.155,-0.7863,-15.3206,7.2977
0.9243,0.3901,-0.1489,-1.0382,-15.0763,7.4122
0.9314,0.3904,-0.1533,-1.5115,-14.8321,7.771
0.9368,0.3997,-0.1655,-2.0382,-14.5267,7.2214
0.9341,0.3977,-0.1672,-2.5725,-14.1527,6.8397
0.9382,0.4006,-0.1575,-3.2443,-13.7786,6.7023
0.9465,0.4082,-0.1633,-4.0,-13.4198,6.4275
0.9441,0.3994,-0.1602,-4.3664,-12.7634,6.2977
0.939,0.4014,-0.1663,-5.0611,-12.1145,6.4656
0.9399,0.3975,-0.1702,-5.687,-11.1069,6.145
0.9407,0.3936,-0.1692,-6.3053,-10.3435,6.2672
0.9407,0.3989,-0.1663,-6.7557,-9.2977,6.3664
0.9468,0.4006,-0.1553,-7.2977,-8.5725,6.1221
0.9412,0.4028,-0.1479,-7.5191,-7.7405,6.1756
0.946,0.4023,-0.1431,-7.9618,-6.6794,6.4046
0.9438,0.4028,-0.1345,-8.0916,-5.7939,6.2977
0.9431,0.4023,-0.136,-8.1679,-4.9542,6.229
0.9414,0.3972,-0.1338,-8.2824,-4.1603,6.0229
0.9382,0.3994,-0.116,-8.313,-3.5573,5.9771
0.9365,0.3882,-0.114,-8.0763,-3.0458,5.6183
0.9395,0.3967,-0.1125,-7.9695,-2.5878,5.6718
0.9358,0.396,-0.1003,-7.771,-2.2214,5.7634
0.9316,0.3982,-0.1035,-7.7863,-2.4046,5.5802
0.9294,0.3979,-0.0896,-7.6031,-2.1527,5.2443
0.9265,0.3928,-0.0911,-7.458,-2.3359,5.5954
0.9297,0.3936,-0.0884,-7.2977,-2.2672,5.5115
0.9219,0.4009,-0.0911,-7.0916,-2.1985,5.6489
0.926,0.3933,-0.0842,-6.8473,-2.4046,5.8168
0.9241,0.3962,-0.0837,-6.6183,-2.7557,6.3817
0.9155,0.3938,-0.072,-6.2061,-3.2366,6.3359
0.9099,0.3943,-0.063,-5.7634,-4.0153,6.6718
0.9126,0.3875,-0.0676,-5.3282,-4.8473,7.0229
0.9124,0.385,-0.061,-5.1069,-5.9695,7.1374
0.9087,0.3833,-0.0591,-4.7023,-6.9924,7.5191
0.9131,0.3936,-0.0654,-4.2748,-7.916,7.6336
0.917,0.3823,-0.0598,-3.7939,-9.1069,7.9618
0.9297,0.3806,-0.0576,-3.1908,-10.4656,8.2595
0.9277,0.387,-0.053,-2.7023,-11.4962,8.8168
0.9338,0.3774,-0.0693,-2.0916,-11.7786,8.6412
0.936,0.384,-0.0688,-1.6183,-12.2443,8.8473
0.9485,0.3757,-0.0625,-1.0458,-12.2672,8.916
0.948,0.3738,-0.0706,-0.6641,-12.5191,8.6336
0.9578,0.3677,-0.0745,-0.0076,-12.8626,8.8092
0.9565,0.3743,-0.0693,0.4885,-13.0687,9.0611
0.9695,0.3618,-0.0662,1.0229,-13.0229,8.6565
0.9746,0.3677,-0.0608,1.5191,-13.1756,8.5267
0.9788,0.364,-0.0649,2.3053,-13.229,8.3588
0.9927,0.3611,-0.061,2.8931,-13.1832,8.1069
0.9951,0.3623,-0.0588,3.6565,-12.7328,7.8015
1.0056,0.3569,-0.0537,4.3969,-12.1679,7.4962
1.0142,0.3552,-0.0647,5.4122,-11.3588,7.0
1.022,0.3647,-0.0642,6.3282,-10.1985,6.6489
1.0254,0.3638,-0.0688,7.1756,-8.6947,6.3664
1.0303,0.3652,-0.0696,8.3282,-7.313,5.9695
1.0281,0.3689,-0.0786,9.1679,-5.687,5.145
1.0374,0.3667,-0.0767,10.0382,-3.9008,4.855
1.0396,0.3657,-0.0996,10.8702,-2.2519,4.5496
1.0417,0.3652,-0.0964,11.6794,-0.6794,3.7939
1.0415,0.3696,-0.0977,12.2595,1.0534,3.4885
1.042,0.3699,-0.1177,13.0076,2.7405,3.145
1.0422,0.3687,-0.136,13.3053,4.2443,2.4733
1.0496,0.3708,-0.1377,13.7863,5.8168,2.0534
1.0503,0.3762,-0.1558,13.7557,7.4198,1.5954
1.0437,0.3789,-0.1702,13.6489,8.9847,1.0076
1.0386,0.3906,-0.1858,13.1221,10.3282,0.4427
1.0334,0.3994,-0.1868,12.2977,11.4733,-0.1374
1.0366,0.4075,-0.2019,11.2366,12.3969,-0.8855
1.031,0.4167,-0.2053,10.0763,13.0229,-1.6412
1.0249,0.415,-0.2036,8.8168,13.1221,-2.0229
1.0222,0.418,-0.2109,7.313,13.1832,-2.6565
1.009,0.4231,-0.2141,5.6641,13.1221,-3.5115
1.0029,0.418,-0.2197,4.0763,12.5496,-4.0763
0.9954,0.4163,-0.2151,2.4504,11.8168,-4.8473
0.9832,0.4243,-0.2285,0.7405,10.9695,-5.4122
0.978,0.4207,-0.2173,-0.6718,10.0611,-6.2672
0.9609,0.4128,-0.2134,-2.1756,8.916,-6.916
0.9451,0.4158,-0.2017,-3.5191,7.1298,-7.4427
0.9375,0.4143,-0.2036,-4.5802,5.8779,-7.9542
0.9282,0.4106,-0.199,-5.4885,4.1832,-8.1603
0.9194,0.4082,-0.1936,-6.4809,2.4122,-8.229
0.9075,0.4036,-0.1741,-7.1832,0.7328,-7.8015
0.8943,0.3945,-0.1653,-7.9084,-1.6031,-7.145
