ax,ay,az,gx,gy,gz
0.8718,-0.0112,0.7009,121.626,-84.855,56.0382
0.8682,-0.0237,0.7017,129.4809,-87.7176,57.5496
0.8613,-0.0176,0.7014,137.5954,-89.2977,59.5878
0.8547,-0.0305,0.6775,145.6488,-90.8626,61.8092
0.866,-0.0483,0.6616,154.0076,-90.2901,64.5267
0.8774,-0.0549,0.6331,162.1832,-89.7634,68.2443
0.8909,-0.0588,0.6187,169.6794,-87.7023,71.7328
0.9141,-0.0732,0.6011,178.145,-84.1374,76.0
0.9263,-0.0745,0.5715,185.7481,-80.2061,79.9542
0.9485,-0.0881,0.5515,193.0305,-75.5267,84.229
0.9724,-0.1106,0.519,200.0,-70.6794,88.0153
1.0005,-0.1294,0.5132,206.5038,-65.5725,92.2901
1.0359,-0.1504,0.4917,212.7176,-61.3282,96.0305
1.0786,-0.1777,0.4656,218.771,-56.8092,99.8168
1.1035,-0.1956,0.4438,223.9389,-52.8779,102.4427
1.1533,-0.2114,0.4299,229.6336,-48.7939,105.6183
1.2029,-0.2239,0.4106,234.4886,-45.3282,107.7328
1.2581,-0.231,0.3928,239.1832,-42.4656,109.1221
1.3132,-0.2358,0.3855,243.4275,-39.8321,109.5802
1.3606,-0.2288,0.3657,247.4809,-37.5878,109.3359
1.4014,-0.2261,0.3779,250.1298,-35.9084,108.0382
1.4351,-0.2258,0.363,250.1298,-35.4351,106.0992
1.4521,-0.2485,0.3516,250.1298,-35.8779,102.6947
1.4707,-0.259,0.3333,250.1298,-37.3817,98.7939
1.4888,-0.2922,0.3306,250.1298,-39.8855,94.458
1.491,-0.3252,0.3428,250.1298,-44.145,89.0229
1.5029,-0.3511,0.3437,250.1298,-50.4351,83.2519
1.5332,-0.3572,0.3311,250.1298,-58.6336,75.6718
1.5537,-0.3862,0.3184,250.1298,-69.0611,67.5802
1.5754,-0.3989,0.2869,250.1298,-78.3511,61.2901
1.5854,-0.4011,0.2788,250.1298,-87.0458,54.5878
1.6104,-0.4229,0.2549,250.1298,-96.6183,47.9771
1.6379,-0.4373,0.2039,250.1298,-105.0687,41.5649
1.665,-0.4512,0.1533,250.1298,-113.5954,34.9466
1.696,-0.4453,0.1101,250.1298,-121.4046,28.3969
1.7295,-0.4294,0.0627,250.1298,-128.7405,21.8855
1.7598,-0.4043,0.0117,250.1298,-134.7481,14.9313
1.7935,-0.3701,-0.0339,250.1298,-139.855,8.1908
1.8005,-0.3477,-0.051,250.1298,-143.9389,1.2748
1.8179,-0.3201,-0.1108,250.1298,-146.9542,-6.0153
1.835,-0.2974,-0.1604,250.1298,-149.3817,-13.5115
1.8442,-0.2959,-0.2034,250.1298,-151.2824,-21.0
1.8418,-0.29,-0.2332,250.1298,-153.8244,-28.5344
1.8384,-0.2944,-0.2512,250.1298,-158.1374,-35.7634
1.8367,-0.29,-0.3047,250.1298,-161.1908,-43.1603
1.832,-0.2981,-0.3625,250.1298,-161.9313,-50.4198
1.8389,-0.2871,-0.3967,250.1298,-161.4733,-57.542
1.8459,-0.283,-0.4136,250.1298,-161.3359,-63.6107
1.8572,-0.2629,-0.4263,250.1298,-161.5725,-69.9313
1.8667,-0.2439,-0.4443,250.1298,-161.8015,-75.7481
1.8936,-0.2273,-0.4736,250.1298,-162.3206,-81.6794
1.9067,-0.2156,-0.5044,250.1298,-163.0458,-87.626
1.9211,-0.1953,-0.5352,250.1298,-164.0687,-93.1679
1.9495,-0.1812,-0.5588,250.1298,-165.8321,-98.9771
1.9517,-0.1851,-0.5803,250.1298,-167.9847,-105.374
1.9822,-0.1758,-0.6072,250.1298,-169.7023,-111.6031
1.9961,-0.1831,-0.6482,250.1298,-171.1374,-119.1985
1.9999,-0.1838,-0.6746,250.1298,-172.5878,-126.8931
1.9999,-0.186,-0.7046,250.1298,-173.9695,-135.4962
1.9999,-0.1885,-0.7439,250.1298,-174.9542,-144.5649
1.9999,-0.189,-0.7737,250.1298,-175.7863,-154.0153
1.9999,-0.1826,-0.8167,250.1298,-176.0611,-164.6718
1.9999,-0.1724,-0.8662,250.1298,-175.7863,-175.0534
1.9999,-0.1785,-0.8926,250.1298,-175.3282,-185.4198
1.9999,-0.1763,-0.9192,250.1298,-174.9237,-196.5496
1.9999,-0.1758,-0.9573,247.7252,-174.458,-207.2595
1.9999,-0.2,-0.9995,242.7481,-173.8626,-217.8168
1.9999,-0.2195,-1.0134,237.4427,-173.6031,-228.0229
1.9878,-0.2341,-1.0471,231.9924,-173.5954,-238.2595
1.9666,-0.2292,-1.0713,226.2214,-173.9008,-247.8931
1.9375,-0.2256,-1.0938,219.9771,-174.1298,-250.1374
1.9141,-0.2114,-1.1128,213.6183,-174.7405,-250.1374
1.9082,-0.1997,-1.1243,206.7176,-174.916,-250.1374
1.8889,-0.1816,-1.1394,199.6031,-174.9618,-250.1374
1.8699,-0.1804,-1.1614,191.9008,-174.8702,-250.1374
1.8599,-0.1716,-1.1787,184.2443,-174.3512,-250.1374
1.8433,-0.1667,-1.1902,176.2214,-173.3053,-250.1374
1.8286,-0.1738,-1.2144,168.0458,-171.3512,-250.1374
1.8071,-0.1841,-1.2407,159.687,-168.0229,-250.1374
1.7832,-0.2048,-1.2568,151.3435,-163.626,-250.1374
1.7761,-0.2102,-1.2661,142.8473,-158.8321,-250.1374
1.7429,-0.2263,-1.2878,132.0916,-152.1603,-250.1374
1.7146,-0.2217,-1.2927,122.7405,-145.855,-250.1374
1.6968,-0.2148,-1.2925,114.2901,-139.1145,-250.1374
1.689,-0.2048,-1.3035,106.7481,-132.3282,-250.1374
1.6555,-0.189,-1.2964,97.6336,-123.9847,-250.1374
1.6313,-0.1851,-1.3005,89.4427,-115.3359,-250.1374
1.604,-0.186,-1.3022,81.542,-106.2672,-250.1374
1.5789,-0.1836,-1.2791,73.4885,-97.3588,-250.1374
1.5332,-0.188,-1.2783,65.771,-86.916,-250.1374
1.479,-0.2012,-1.27,58.145,-74.3817,-250.1374
1.418,-0.1992,-1.2639,51.3435,-61.9084,-250.1374
1.3459,-0.2163,-1.2529,45.916,-50.1298,-250.1374
1.3171,-0.2268,-1.2578,41.0763,-38.6336,-250.1374
1.2434,-0.2485,-1.2842,37.0916,-27.0076,-250.1374
1.1624,-0.27,-1.3413,33.4656,-13.5573,-250.1374
1.0837,-0.2664,-1.3584,30.3588,0.4504,-250.1374
1.0002,-0.23,-1.3533,27.8931,14.0611,-250.1374
0.917,-0.186,-1.3599,25.8473,27.1603,-250.1374
0.8411,-0.1274,-1.3596,24.2214,39.3282,-250.1374
0.7822,-0.0708,-1.3811,22.4733,50.4046,-250.1374
0.7539,-0.0474,-1.384,20.8473,60.8626,-250.1374
0.6965,0.0127,-1.3762,18.0687,69.5954,-250.1374
0.6267,0.072,-1.3696,14.6336,76.2977,-250.1374
0.5698,0.1577,-1.3325,11.5115,79.4657,-250.1374
0.5408,0.1968,-1.2529,8.6641,75.3893,-250.1374
0.4324,0.2192,-1.2261,5.8626,66.2672,-250.1374
0.3845,0.2126,-1.2168,3.1069,55.0153,-250.1374
0.3337,0.22,-1.2485,0.2061,41.4733,-250.1374
0.3237,0.2134,-1.2646,-3.5649,26.3588,-250.1374
0.3245,0.2185,-1.2932,-8.3588,12.0763,-250.1374
0.3083,0.2327,-1.2922,-13.4351,-2.1679,-250.1374
0.302,0.2466,-1.3083,-19.5267,-16.4886,-250.1374
0.3132,0.2761,-1.3359,-26.0229,-29.0076,-250.1374
0.2986,0.3113,-1.3464,-32.7176,-40.4885,-250.1374
0.2893,0.3564,-1.3552,-39.8015,-51.3817,-250.1374
0.2871,0.3936,-1.3457,-46.9542,-61.6641,-250.1374
0.2761,0.4172,-1.3337,-54.0916,-73.4198,-250.1374
0.2783,0.4133,-1.3538,-61.6641,-86.2595,-250.1374
0.2595,0.4089,-1.3369,-69.1145,-100.2595,-250.1374
0.2288,0.3799,-1.3291,-76.8168,-113.1756,-250.1374
0.1938,0.3477,-1.314,-84.7328,-127.5343,-250.1374
0.1667,0.3096,-1.3059,-92.2824,-142.6488,-250.1374
0.1328,0.2783,-1.2898,-100.1756,-158.2595,-250.1374
0.1008,0.2622,-1.2808,-107.9008,-174.2443,-250.1374
0.0879,0.2825,-1.2686,-115.5878,-190.7634,-250.1374
0.0952,0.3071,-1.2896,-122.8015,-208.4046,-250.1374
0.0732,0.3521,-1.2583,-129.4046,-225.7252,-250.1374
0.0632,0.3909,-1.2407,-136.1603,-243.7176,-250.1374
0.0574,0.4058,-1.2219,-142.2214,-250.1374,-250.1374
0.062,0.4055,-1.2041,-148.3206,-250.1374,-250.1374
0.0679,0.3818,-1.1816,-154.0763,-250.1374,-250.1374
0.0674,0.3428,-1.1897,-159.7786,-250.1374,-250.1374
0.0635,0.3442,-1.1807,-164.9542,-250.1374,-247.9008
0.0698,0.3384,-1.1714,-169.1908,-250.1374,-245.1374
0.0808,0.3066,-1.1174,-174.0687,-250.1374,-241.8473
0.0935,0.22,-1.0591,-179.1145,-250.1374,-238.084
0.0945,0.1438,-1.05,-184.0382,-250.1374,-234.6412
0.0964,0.0503,-1.0437,-188.1908,-250.1374,-232.1527
0.1145,-0.0266,-1.02,-191.7405,-250.1374,-229.4886
0.147,-0.0503,-0.988,-195.1527,-250.1374,-226.3588
0.1697,-0.0374,-0.9685,-197.9008,-250.1374,-223.4809
0.2273,0.0132,-0.9309,-200.0458,-250.1374,-220.1145
0.2878,0.0437,-0.8943,-201.3512,-250.1374,-216.7099
0.353,0.0505,-0.8721,-201.9466,-250.1374,-213.6947
0.4304,0.0767,-0.9016,-202.2214,-250.1374,-211.2366
0.4934,0.106,-0.9165,-201.7557,-250.1374,-209.3893
0.5701,0.1384,-0.9556,-200.7176,-250.1374,-207.6565
0.6328,0.1631,-0.9839,-199.0229,-250.1374,-206.4351
0.6638,0.1704,-0.9917,-197.0382,-250.1374,-204.7176
0.7336,0.2021,-0.9807,-194.458,-250.1374,-202.8397
0.7922,0.2278,-1.0027,-191.8931,-250.1374,-201.145
0.824,0.248,-1.0215,-189.0916,-250.1374,-199.0611
0.8423,0.2637,-1.0305,-186.1985,-250.1374,-197.084
0.8523,0.2717,-1.0601,-183.6565,-250.1374,-195.0534
0.844,0.2849,-1.0793,-181.2977,-250.1374,-193.145
0.8264,0.2773,-1.0991,-179.5573,-250.1374,-191.1679
0.7871,0.2725,-1.1338,-178.4122,-241.5191,-189.7176
0.749,0.2937,-1.167,-177.7557,-226.4733,-188.0916
0.7246,0.3047,-1.1926,-177.8397,-211.8244,-185.9237
0.6697,0.3618,-1.2283,-178.0611,-198.458,-183.9389
0.606,0.3979,-1.2397,-179.3664,-186.8626,-181.7481
0.5535,0.4175,-1.2437,-181.6412,-177.1145,-178.8473
0.4814,0.4453,-1.2451,-184.4351,-169.5725,-176.0229
0.408,0.4407,-1.2407,-187.916,-164.3359,-173.1298
0.3533,0.45,-1.262,-191.8397,-160.8244,-169.6718
0.2869,0.4551,-1.2725,-196.1221,-159.3969,-166.4046
0.2542,0.4602,-1.2913,-200.6336,-158.9618,-163.3893
0.1841,0.4717,-1.3018,-205.1908,-159.4122,-160.4657
0.1431,0.4875,-1.3118,-209.916,-160.4657,-157.8397
0.0857,0.5027,-1.301,-215.2977,-162.1145,-155.6488
0.0371,0.5061,-1.2837,-220.5496,-164.7099,-153.5343
-0.0137,0.4976,-1.2483,-226.4198,-168.771,-151.3359
-0.0537,0.469,-1.229,-232.9466,-173.3969,-149.4733
-0.103,0.4343,-1.1992,-239.9466,-178.3893,-148.0458
-0.1299,0.4233,-1.1702,-247.1145,-184.0458,-146.9695
-0.1724,0.3904,-1.116,-250.1374,-191.3817,-145.626
-0.1975,0.3403,-1.0857,-250.1374,-200.2137,-144.8626
-0.2263,0.2771,-1.04,-250.1374,-208.7405,-144.4198
-0.2532,0.1614,-1.0232,-250.1374,-216.7863,-144.1298
-0.2661,0.0271,-0.9963,-250.1374,-223.9771,-144.1527
-0.2847,-0.0911,-0.9692,-250.1374,-229.8092,-144.4198
-0.2949,-0.1677,-0.936,-250.1374,-233.5649,-144.2901
-0.3047,-0.1943,-0.8918,-250.1374,-235.145,-143.7863
-0.3015,-0.2024,-0.8362,-250.1374,-235.0305,-142.0305
-0.3142,-0.1826,-0.7556,-250.1374,-233.7557,-139.5878
-0.3142,-0.1194,-0.6677,-250.1374,-231.229,-136.0763
-0.3347,-0.0247,-0.5549,-250.1374,-229.3435,-132.1985
-0.3347,0.0693,-0.4685,-250.1374,-227.1221,-127.5573
-0.3069,0.1304,-0.4153,-250.1374,-219.7176,-119.855
-0.321,0.158,-0.3279,-250.1374,-213.9008,-113.4351
-0.3264,0.157,-0.271,-250.1374,-208.1908,-106.7481
-0.3247,0.157,-0.2354,-250.1374,-202.5649,-99.8015
-0.3369,0.1523,-0.1953,-250.1374,-197.8244,-91.9313
-0.3459,0.145,-0.1836,-250.1374,-192.4809,-84.5573
-0.3401,0.1477,-0.1697,-250.1374,-187.9695,-76.2595
-0.3479,0.1699,-0.1682,-250.1374,-183.6947,-68.4733
-0.3508,0.1772,-0.1455,-249.3512,-179.6031,-60.145
-0.344,0.2017,-0.1423,-240.5267,-176.0992,-51.3893
-0.3386,0.2288,-0.1458,-231.7786,-172.3435,-42.2672
-0.3279,0.2561,-0.1433,-223.1374,-169.2443,-32.771
-0.3157,0.2744,-0.1611,-214.9466,-165.9771,-22.9847
-0.3105,0.3022,-0.1685,-207.2672,-163.1679,-13.771
-0.2981,0.3218,-0.1829,-199.9695,-160.7786,-4.0611
-0.2815,0.3394,-0.2029,-193.0916,-158.4275,5.8397
-0.2781,0.354,-0.1978,-187.7634,-156.2595,14.1603
-0.2546,0.375,-0.2043,-182.4886,-153.4733,23.3511
-0.2329,0.4072,-0.2141,-178.3664,-150.4809,31.5344
-0.2126,0.4338,-0.2134,-175.1679,-147.0992,38.9389
-0.1863,0.4561,-0.2327,-172.8779,-142.5496,45.6336
-0.1628,0.4895,-0.2319,-171.2824,-137.6947,52.1603
-0.1477,0.5234,-0.2366,-170.3359,-132.1756,57.9847
-0.1287,0.551,-0.2371,-170.1298,-126.3969,62.8931
-0.1147,0.5813,-0.2393,-170.4122,-120.5954,67.7176
-0.1045,0.5957,-0.2344,-171.4733,-115.2214,71.5573
-0.1052,0.6016,-0.2268,-173.4122,-110.5496,75.0687
-0.0918,0.6094,-0.2134,-175.8321,-106.7939,77.9008
-0.0969,0.6008,-0.2063,-178.5267,-103.8015,80.3664
-0.0889,0.5999,-0.2053,-181.5267,-102.0992,82.2214
-0.0889,0.593,-0.1963,-185.0382,-101.313,83.5573
-0.0894,0.5977,-0.177,-188.4809,-101.0076,84.6565
-0.0957,0.6165,-0.1689,-191.8168,-101.2977,85.2443
-0.0974,0.6143,-0.1562,-195.1221,-102.4504,85.2901
-0.1001,0.6182,-0.1267,-198.1756,-104.374,84.855
-0.1011,0.6111,-0.1155,-201.7634,-106.5343,84.4885
-0.1008,0.605,-0.093,-204.6947,-109.1603,83.7481
-0.1091,0.5784,-0.0764,-207.6718,-111.5725,82.771
-0.1089,0.5552,-0.0549,-210.2977,-114.0229,81.9084
-0.1238,0.5369,-0.04,-212.6412,-117.1756,81.084
-0.1333,0.5012,-0.0083,-214.4809,-120.6947,79.7328
-0.1323,0.4958,-0.002,-215.9542,-123.8626,79.1908
-0.1445,0.4502,0.0195,-217.2748,-127.0687,78.8855
-0.1506,0.397,0.0273,-218.1756,-129.6718,78.3511
-0.1599,0.3352,0.05,-218.8015,-132.0305,78.5496
-0.1614,0.2671,0.0823,-219.229,-134.5267,79.1603
-0.1624,0.2288,0.1001,-218.7328,-136.8168,80.4427
-0.1738,0.2227,0.1321,-217.4198,-138.7328,82.3817
-0.1743,0.2224,0.1577,-215.2061,-140.5191,85.0
-0.1851,0.2349,0.1682,-212.5802,-141.7863,88.0076
-0.1931,0.2571,0.208,-208.5954,-142.4122,92.5038
-0.1995,0.2693,0.2219,-204.4504,-142.4733,97.4427
-0.2026,0.2849,0.2617,-199.9389,-141.6107,103.0
-0.2061,0.293,0.2729,-195.0534,-139.5038,108.7863
-0.2161,0.3005,0.2988,-188.5954,-136.2214,116.229
-0.2158,0.2937,0.3313,-183.0458,-133.2061,122.6412
-0.2183,0.2839,0.3484,-177.6488,-129.626,129.4504
-0.2292,0.2947,0.3542,-172.145,-125.687,136.1908
-0.229,0.3157,0.3706,-166.4046,-121.3588,142.8473
-0.2363,0.3396,0.3826,-160.4275,-116.7328,149.5343
-0.2424,0.3569,0.4048,-154.2977,-111.9695,156.5649
-0.2427,0.3594,0.4097,-148.687,-107.7405,163.1832
-0.2515,0.3574,0.4229,-142.6565,-103.4809,170.7023
-0.2466,0.3728,0.4512,-136.9618,-100.3359,177.9084
-0.2544,0.3794,0.4617,-131.3359,-96.6565,185.229
-0.2556,0.3958,0.4648,-125.7634,-93.5802,192.9237
-0.261,0.3977,0.4783,-120.458,-92.2977,200.1374
-0.2629,0.4111,0.4736,-115.2901,-91.8473,207.4657
-0.2634,0.4163,0.4834,-110.4962,-89.2519,214.8092
-0.2644,0.4226,0.4976,-105.7328,-88.0916,221.7939
-0.2629,0.4146,0.4983,-101.2595,-87.1298,229.0229
-0.2651,0.4192,0.5081,-97.0153,-86.7405,235.7023
-0.2727,0.4285,0.5215,-92.5573,-86.9008,242.9389
-0.2832,0.4307,0.5271,-88.7405,-86.5649,249.4733
-0.2776,0.4465,0.5527,-85.0687,-86.4504,250.1298
-0.2869,0.4573,0.5598,-81.3817,-86.1908,250.1298
-0.2932,0.4583,0.5676,-77.9618,-86.0611,250.1298
-0.2979,0.4561,0.5681,-74.4885,-85.4657,250.1298
-0.2969,0.4636,0.5798,-71.0534,-85.4122,250.1298
-0.2942,0.4641,0.5764,-67.8321,-85.542,250.1298
-0.2939,0.4617,0.5911,-64.4657,-85.7405,250.1298
-0.3008,0.4507,0.5916,-61.3359,-86.3282,250.1298
-0.291,0.4385,0.5979,-58.5038,-87.4275,250.1298
-0.2754,0.4231,0.5952,-55.3817,-89.0,250.1298
-0.2598,0.4006,0.5923,-52.687,-90.5496,250.1298
-0.2314,0.3789,0.5767,-49.4809,-93.8092,250.1298
-0.2026,0.3645,0.55,-46.5954,-95.687,250.1298
-0.1897,0.3562,0.5261,-43.6794,-95.4657,250.1298
-0.1396,0.3462,0.4956,-40.4809,-97.4122,250.1298
-0.1011,0.334,0.4727,-37.2824,-97.374,250.1298
-0.0569,0.3345,0.4341,-33.9924,-96.6031,250.1298
-0.0046,0.3181,0.4038,-30.7557,-96.4809,250.1298
0.0347,0.2881,0.384,-27.7176,-93.6183,250.1298
0.0847,0.2607,0.3516,-24.8321,-92.9847,250.1298
0.126,0.2249,0.3218,-22.0382,-91.4427,250.1298
0.1492,0.2083,0.3127,-19.4733,-88.1908,250.1298
0.1831,0.1689,0.3022,-17.0534,-86.7405,250.1298
0.2192,0.1428,0.29,-14.8244,-85.0611,250.1298
0.2466,0.1177,0.2659,-12.7328,-84.5725,250.1298
0.2734,0.0901,0.2734,-10.771,-83.313,250.1298
0.3027,0.0635,0.2776,-9.0763,-82.2672,250.1298
0.3457,0.0229,0.2959,-7.7023,-81.8626,250.1298
0.3831,-0.0122,0.3113,-6.4962,-81.687,250.1298
0.3977,-0.022,0.3254,-5.1908,-80.771,250.1298
0.4302,-0.0208,0.3599,-3.5496,-78.5496,250.1298
0.469,-0.0132,0.3713,-1.6565,-75.8779,250.1298
0.4932,-0.0146,0.4233,0.4122,-73.0992,250.1298
0.509,-0.0251,0.4661,2.9466,-70.0,250.1298
0.5281,-0.0271,0.5134,6.1374,-67.145,250.1298
0.5381,-0.04,0.572,10.687,-63.687,250.1298
0.5493,-0.0391,0.6375,15.0916,-61.7634,250.1298
0.5662,-0.0417,0.7007,20.374,-60.626,250.1298
0.5891,-0.0557,0.762,26.5573,-59.7786,250.1298
0.6294,-0.0823,0.8054,33.9084,-58.5573,250.1298
0.6741,-0.1289,0.8311,41.9924,-57.1985,250.1298
0.7341,-0.167,0.8564,50.8779,-55.4275,250.1298
0.7661,-0.1797,0.8582,60.0229,-53.1374,250.1298
0.8372,-0.2034,0.8677,71.6183,-48.9084,250.1298
0.9028,-0.2349,0.8672,83.0534,-43.8702,250.1298
0.9756,-0.2551,0.8828,94.8626,-38.1298,250.1298
1.0593,-0.2561,0.8911,107.3817,-32.313,250.1298
1.144,-0.251,0.8999,120.7176,-26.9847,250.1298
1.2339,-0.2539,0.884,133.5038,-21.1985,250.1298
1.3281,-0.2566,0.8516,147.1298,-15.0916,250.1298
1.4375,-0.2729,0.7971,160.4427,-9.5115,250.1298
1.4819,-0.2898,0.7844,173.2595,-4.3969,250.1298
1.5872,-0.3186,0.7207,185.9466,1.1221,250.1298
1.709,-0.3403,0.6394,196.3359,8.7786,250.1298
1.833,-0.3345,0.5359,205.7557,20.1832,250.1298
1.9497,-0.3108,0.4661,213.4122,32.2366,250.1298
1.9999,-0.2822,0.407,219.7481,43.771,250.1298
1.9999,-0.2534,0.344,224.771,55.8779,250.1298
1.9999,-0.2207,0.2986,228.1908,68.4809,250.1298
1.9999,-0.2063,0.3052,229.687,79.3511,250.1298
1.9999,-0.1609,0.2798,230.0229,90.374,250.1298
1.9999,-0.1177,0.2756,228.8244,99.1298,250.1298
1.9999,-0.0818,0.2568,226.9008,105.771,250.1298
1.9999,-0.0393,0.2463,224.0763,110.3511,250.1298
1.9999,-0.0046,0.2424,220.2519,113.5267,250.1298
1.9999,0.019,0.2485,215.9237,114.6794,250.1298
1.9999,0.0408,0.2803,211.4275,114.2672,250.1298
1.9999,0.0684,0.2944,206.4504,112.5878,250.1298
1.9999,0.0671,0.3196,201.5114,109.4809,250.1298
1.9999,0.0693,0.3562,196.7939,105.4733,250.1298
1.9999,0.0669,0.3896,192.4504,100.6183,250.0534
1.9999,0.0625,0.4438,188.5343,94.6336,239.229
1.9268,0.0505,0.4819,185.145,87.0687,229.6488
1.8479,0.0422,0.5366,182.7405,78.8168,221.8015
1.7654,0.0261,0.5923,181.1145,69.2672,215.3053
1.6868,0.0105,0.6404,180.7099,58.9084,209.2901
1.6492,0.0,0.6616,181.1679,47.5038,204.8321
1.5767,-0.0266,0.687,182.4962,35.374,201.4733
1.5181,-0.0525,0.707,184.4657,22.6794,198.2748
1.4763,-0.0937,0.7202,187.3969,9.8397,195.6947
1.4617,-0.1445,0.7239,190.7252,-3.3282,194.3359
1.4568,-0.2095,0.699,194.4657,-16.5725,193.084
1.4771,-0.2527,0.6504,198.9542,-29.0611,192.6107
1.5054,-0.29,0.5857,203.6336,-40.3282,192.2977
1.5337,-0.3008,0.5466,208.8626,-49.9542,192.1069
1.5928,-0.3083,0.478,213.8626,-58.4275,191.4733
1.6482,-0.3074,0.4211,218.7252,-65.8931,190.4275
1.717,-0.2913,0.3413,222.8855,-71.6412,188.2901
1.7798,-0.2644,0.2815,226.0687,-75.771,185.3893
1.8298,-0.2322,0.2134,229.1832,-78.2214,180.3893
1.884,-0.1887,0.1455,230.8779,-78.2443,175.4046
1.9399,-0.1704,0.0874,231.626,-76.3053,169.2519
1.968,-0.1409,0.0327,231.8092,-73.5954,162.7099
1.9999,-0.1301,-0.0244,231.1527,-70.2748,156.0458
1.9999,-0.1177,-0.0754,229.8779,-66.5038,148.8779
1.9999,-0.0969,-0.1223,227.6947,-62.3435,141.5191
1.9999,-0.085,-0.1497,225.0763,-57.7863,134.4962
1.9999,-0.0627,-0.1921,221.8168,-52.6412,127.5878
1.9999,-0.0383,-0.2249,218.1756,-47.3053,120.9618
1.9999,-0.0027,-0.2524,214.0992,-40.8779,114.3664
1.9999,0.0215,-0.2678,209.7786,-34.4656,108.771
1.9861,0.0337,-0.2681,205.3588,-27.916,103.542
1.9534,0.0486,-0.281,201.5114,-21.542,98.7176
1.9226,0.0608,-0.2874,197.7481,-15.3817,94.3053
1.8735,0.071,-0.2908,194.1832,-9.4046,90.3588
1.8547,0.0796,-0.2905,191.2366,-4.229,86.8626
1.813,0.0837,-0.2805,188.7176,0.6947,84.4962
1.7693,0.0798,-0.2737,186.3206,5.4198,82.1374
1.7285,0.0886,-0.2668,184.4046,9.4809,80.5802
1.6841,0.095,-0.2595,182.6031,13.3817,79.2824
1.6519,0.0996,-0.2529,181.0153,16.6565,78.2595
1.616,0.1082,-0.2468,179.6336,19.6031,77.6718
1.5842,0.1047,-0.2244,178.2214,21.8626,77.313
1.5723,0.1143,-0.2139,177.0,23.6947,76.626
1.5444,0.1069,-0.1992,175.7786,24.5649,76.4351
1.5232,0.1147,-0.1912,174.8015,25.1374,75.5343
1.5127,0.1072,-0.1858,174.2061,25.3435,74.5343
1.5017,0.1064,-0.1909,173.4275,25.0382,73.687
1.4846,0.1008,-0.176,172.7099,24.3282,72.5954
1.478,0.0867,-0.1724,172.1985,23.5191,70.9237
1.469,0.0757,-0.1592,171.4657,22.1374,69.0916
1.4619,0.0669,-0.1567,171.1221,20.5878,67.4427
1.457,0.0557,-0.1389,170.6031,18.1069,65.1679
1.4551,0.0437,-0.1382,170.3359,15.9847,62.7328
1.4561,0.0361,-0.1262,170.229,13.5878,60.1298
1.4543,0.0342,-0.1333,170.313,11.0687,57.4351
1.4458,0.0415,-0.1328,170.2977,8.8321,54.6031
1.4497,0.0415,-0.1382,170.0763,6.5954,51.458
1.4468,0.0366,-0.1572,170.2061,4.5115,48.4504
1.4424,0.0481,-0.166,169.9084,2.7786,45.7405
1.4348,0.0298,-0.1926,169.9313,1.0153,42.8397
1.4395,0.0237,-0.2231,169.7099,-0.1908,40.2366
1.4509,0.0137,-0.2615,169.5267,-0.8931,37.5954
1.4529,0.0117,-0.2913,169.3282,-0.7328,35.0534
1.4724,0.0156,-0.3232,169.0763,0.2595,32.855
1.4749,0.0076,-0.3689,168.5267,1.8779,30.5878
1.4937,0.0125,-0.4111,167.8473,4.0229,28.229
1.5027,0.0139,-0.4282,167.3206,6.5649,26.084
1.5039,0.0188,-0.4431,166.2977,9.5267,23.9618
1.5125,0.0188,-0.4641,165.1756,11.9924,21.5802
1.5271,0.0298,-0.4858,163.7176,13.8779,19.1756
1.5381,0.0337,-0.5186,162.2443,16.0763,16.771
1.5527,0.0413,-0.5417,160.3893,18.4198,14.2061
1.5593,0.0569,-0.5691,157.7328,20.7176,10.7405
1.5786,0.0762,-0.5977,154.7786,23.0153,7.4198
1.5896,0.0879,-0.6221,151.9008,25.2595,3.7405
1.5964,0.1077,-0.6504,148.3206,27.458,0.084
1.593,0.1143,-0.6885,144.8015,29.7023,-4.0382
1.6023,0.1267,-0.7136,140.7328,31.8779,-8.4504
1.6047,0.135,-0.7319,135.9847,33.8092,-13.1298
1.6067,0.135,-0.7549,131.2519,35.9924,-17.7405
1.6052,0.1465,-0.7729,126.3359,37.8321,-22.5878
1.5952,0.1411,-0.7681,119.6718,39.0382,-27.6718
1.5818,0.1582,-0.7781,114.7328,40.4198,-33.1298
1.5618,0.1738,-0.7944,109.0763,41.8244,-38.2214
1.5359,0.189,-0.7871,103.0687,42.855,-43.229
1.5063,0.2078,-0.7666,97.2214,43.3282,-48.1908
1.4854,0.2195,-0.7483,90.7634,43.4885,-52.7634
1.45,0.2207,-0.7307,85.0763,43.1298,-57.374
1.4402,0.2173,-0.7197,79.5573,42.6641,-60.9771
1.4053,0.2095,-0.7102,74.2672,41.7023,-64.3206
1.3623,0.2014,-0.6875,69.4504,40.687,-67.687
1.3276,0.1853,-0.6582,64.9542,39.2977,-70.6412
1.2925,0.1702,-0.6274,61.0153,37.5954,-73.0992
1.2539,0.1562,-0.5945,57.5496,35.6947,-75.3969
1.2078,0.1504,-0.5659,54.771,33.3588,-77.3435
1.1692,0.1418,-0.5344,52.3511,31.1985,-79.145
1.1482,0.1384,-0.5359,50.3969,28.9466,-80.7557
1.1162,0.1282,-0.5142,49.0,26.542,-81.8626
1.0742,0.1191,-0.5088,48.0458,24.4275,-83.0229
1.0378,0.1072,-0.4866,47.2214,22.3282,-83.2901
1.0012,0.0977,-0.4785,46.8855,20.0076,-83.4657
0.9639,0.0959,-0.4673,46.3282,17.9771,-83.0611
0.925,0.0796,-0.4661,46.2824,16.4656,-82.2672
0.8889,0.0796,-0.4614,46.2214,14.5267,-80.6641
0.8777,0.0737,-0.47,46.2443,12.8473,-79.0992
0.8364,0.0708,-0.4443,46.2901,10.9924,-76.6183
0.8135,0.0806,-0.4487,46.6183,8.8931,-74.145
0.7915,0.0996,-0.4443,46.5496,7.6183,-70.626
0.7673,0.1162,-0.4473,46.6718,6.1679,-66.8855
0.7559,0.1372,-0.4451,46.7863,4.8779,-62.7481
0.7395,0.1504,-0.4341,47.0534,3.542,-58.4885
0.7244,0.165,-0.4402,47.1603,2.1298,-54.0305
0.72,0.1624,-0.4495,47.1985,1.1679,-49.7099
0.7178,0.1689,-0.4534,47.145,0.1145,-44.8092
0.7124,0.1772,-0.459,46.7786,-0.7328,-40.374
0.7236,0.1785,-0.481,46.2061,-1.5725,-35.7405
0.7271,0.1858,-0.4915,45.3282,-1.9695,-31.6336
0.7317,0.1895,-0.5049,44.2137,-2.5191,-27.4886
0.7393,0.1973,-0.5078,42.5878,-3.0229,-23.6641
0.7642,0.2053,-0.5283,41.0687,-3.3817,-20.3206
0.7761,0.2065,-0.5386,39.4504,-3.7252,-16.9084
0.8018,0.2119,-0.5469,37.5725,-3.9847,-13.6412
0.8242,0.2263,-0.5686,35.6031,-3.8931,-11.1145
0.8501,0.2346,-0.5798,33.7023,-3.855,-8.9924
0.8801,0.2495,-0.606,31.4656,-3.1374,-6.9237
0.9133,0.2588,-0.6191,28.9084,-2.4275,-5.687
0.9395,0.2646,-0.6321,26.4809,-1.458,-4.6336
0.9658,0.2656,-0.6414,23.3893,-0.5115,-4.1756
0.9849,0.2686,-0.6528,20.1374,0.4504,-3.5725
1.0042,0.2632,-0.6536,16.8015,1.3664,-4.0382
1.0188,0.2705,-0.6558,13.2519,2.0534,-4.6794
1.0422,0.2725,-0.6504,9.4809,2.2824,-5.4962
1.0583,0.2708,-0.6448,5.8244,2.3359,-6.6031
1.0706,0.2678,-0.6389,2.0763,2.4427,-7.7786
1.075,0.2808,-0.6252,-1.6412,1.8397,-9.1221
1.0811,0.2834,-0.6179,-5.4733,1.4962,-10.7939
1.0896,0.2854,-0.5947,-8.9847,0.916,-12.4962
1.0898,0.2788,-0.5896,-12.5191,0.1756,-14.2137
1.0906,0.2703,-0.5757,-15.8397,-0.4962,-16.2748
1.0833,0.2532,-0.5583,-19.1221,-1.1374,-18.374
1.0752,0.2385,-0.5261,-22.0,-2.1756,-19.9466
1.0669,0.23,-0.5024,-24.5878,-3.2901,-21.687
1.0544,0.2229,-0.4788,-26.5496,-4.7557,-23.5114
1.042,0.2158,-0.4387,-28.5267,-6.1145,-24.7634
1.0293,0.2156,-0.4189,-30.1527,-7.9008,-25.9771
1.0212,0.2095,-0.4011,-31.229,-9.4122,-26.9771
1.0066,0.2,-0.3752,-31.9313,-11.374,-27.9847
0.9915,0.198,-0.355,-32.5954,-13.084,-28.542
0.9731,0.1819,-0.3242,-33.084,-15.145,-28.8473
0.9663,0.1702,-0.3096,-33.2137,-17.1908,-29.4427
0.9451,0.1682,-0.2981,-32.9466,-18.771,-29.4733
0.9263,0.1812,-0.281,-32.8321,-20.7099,-29.5191
0.917,0.1833,-0.2468,-32.3053,-22.2519,-29.3817
0.907,0.1772,-0.2378,-31.687,-24.0992,-29.0305
0.9026,0.1738,-0.2366,-31.2137,-25.8168,-28.4809
0.9041,0.1692,-0.2251,-30.374,-27.2061,-28.1374
0.8887,0.1838,-0.2288,-29.4733,-27.8168,-27.2748
0.8889,0.1814,-0.2104,-28.4886,-28.1374,-26.1527
0.8735,0.1855,-0.2007,-27.1603,-27.8473,-24.9618
0.8657,0.1875,-0.2043,-25.7176,-27.3359,-23.4122
0.8735,0.1804,-0.199,-24.1145,-26.4427,-21.3359
0.8655,0.1836,-0.2097,-22.3969,-24.8397,-19.4351
0.8718,0.1873,-0.2151,-20.7099,-23.1832,-17.3664
0.8718,0.1848,-0.1965,-18.9237,-21.2595,-14.626
0.8611,0.1931,-0.1985,-17.2519,-19.1298,-12.0916
0.8767,0.1941,-0.1963,-15.6641,-16.6107,-9.4351
0.8743,0.1992,-0.1897,-13.7634,-14.3282,-6.6489
0.8857,0.2056,-0.2004,-12.4046,-12.0458,-4.1221
0.8967,0.2146,-0.1914,-10.8473,-9.8855,-1.6412
0.905,0.2112,-0.1848,-9.2748,-7.6718,0.6031
0.9131,0.2144,-0.1914,-8.4504,-5.2748,2.9389
0.9231,0.2141,-0.1946,-7.5573,-3.4351,4.5725
0.9387,0.2173,-0.2065,-6.8015,-1.5115,6.1145
0.9451,0.2197,-0.2024,-5.9847,0.145,7.5191
0.9597,0.2283,-0.1995,-5.2748,1.7328,8.4427
0.9785,0.2361,-0.2041,-4.9542,2.9542,8.8168
0.9922,0.2427,-0.2009,-4.7176,3.7786,9.2366
0.9971,0.2522,-0.1946,-4.6641,4.2595,9.3511
1.001,0.249,-0.1855,-4.458,4.7176,9.374
1.02,0.2517,-0.1995,-4.6718,4.4885,8.6794
1.0229,0.2515,-0.2048,-5.0305,4.4809,8.2214
1.0266,0.2539,-0.2046,-5.1985,4.4809,7.7939
1.032,0.2588,-0.2083,-5.6565,4.2824,6.9466
1.0374,0.2583,-0.2092,-5.9389,3.8626,6.2672
1.0481,0.2603,-0.2156,-6.374,3.3969,5.4962
1.0452,0.2607,-0.2173,-6.8244,2.6565,4.1908
1.0469,0.2661,-0.217,-7.3359,1.626,3.1374
1.0469,0.2556,-0.2063,-8.0916,0.8855,2.0153
1.051,0.2615,-0.2056,-8.6183,-0.2595,1.0305
1.043,0.2583,-0.2104,-9.3282,-1.5878,-0.0916
1.0417,0.2605,-0.2114,-10.3511,-2.4885,-1.1756
1.0403,0.2595,-0.2156,-11.229,-3.5115,-2.1527
1.0381,0.2451,-0.2075,-12.6107,-4.6641,-2.626
1.0349,0.2532,-0.2222,-13.6336,-5.3206,-3.1756
1.0259,0.2522,-0.2034,-15.1679,-6.6183,-3.6183
1.0232,0.2539,-0.1943,-16.7252,-7.6718,-3.5725
1.0115,0.2524,-0.1855,-17.7863,-8.6183,-3.6641
1.0125,0.2522,-0.1721,-19.1145,-10.0076,-2.9847
1.0093,0.2444,-0.1677,-20.0076,-11.0382,-2.7328
1.0076,0.2424,-0.1541,-20.855,-12.1908,-2.1069
1.0049,0.2373,-0.1426,-21.2214,-13.1756,-2.1679
1.0054,0.2275,-0.1487,-21.6794,-14.3588,-1.5878
1.0015,0.2178,-0.1245,-22.0687,-15.374,-1.1221
1.0037,0.2134,-0.1121,-22.1527,-16.5725,-0.9924
1.0044,0.2146,-0.0947,-21.8321,-17.8931,-0.6107
1.0068,0.2158,-0.0789,-21.4733,-19.2061,-0.3435
1.0076,0.2087,-0.0815,-21.0458,-20.7481,-0.313
1.009,0.2129,-0.073,-20.3206,-22.0992,-0.2214
1.012,0.2129,-0.0662,-19.7481,-23.6565,0.2748
1.0127,0.2173,-0.0562,-19.1298,-25.0534,0.3435
1.0215,0.2136,-0.053,-18.2977,-26.1756,0.229
1.0237,0.209,-0.0525,-17.4886,-27.0916,0.3282
1.0371,0.2085,-0.0535,-16.6107,-27.9084,0.4656
1.03,0.2095,-0.0461,-15.6489,-28.3664,0.5573
1.0398,0.2065,-0.0542,-14.8473,-28.3435,0.6489
1.0496,0.2046,-0.0571,-13.7634,-27.6107,0.8779
1.0591,0.2078,-0.0688,-12.4198,-26.855,1.0
1.0605,0.2114,-0.072,-11.2214,-25.4427,1.0305
1.0723,0.2078,-0.0676,-10.0229,-23.9542,1.3282
1.071,0.2068,-0.0674,-8.9313,-22.2137,1.6107
1.0774,0.2061,-0.0586,-7.3511,-20.2748,1.6031
1.0759,0.2019,-0.063,-6.0382,-18.4122,2.1603
1.085,0.1982,-0.0581,-4.6947,-16.5725,2.5649
1.0818,0.1987,-0.0632,-3.2595,-14.8397,2.6183
1.0774,0.1938,-0.0667,-1.9084,-12.626,2.9924
1.084,0.2,-0.0586,-0.3664,-10.9466,3.1756
1.085,0.199,-0.0618,1.0916,-9.0916,3.2443
1.082,0.2007,-0.0532,2.5267,-7.0,3.2443
1.0823,0.1987,-0.0635,4.0992,-5.2061,3.458
1.0876,0.2031,-0.0559,5.4504,-3.7099,3.3435
1.084,0.2061,-0.0576,7.0,-2.2824,3.5878
1.0779,0.2053,-0.0571,8.374,-0.771,3.4656
1.0813,0.2061,-0.0701,9.6794,0.5344,3.2748
1.082,0.2083,-0.0696,10.9771,1.6336,3.0153
1.0818,0.2156,-0.0698,12.2443,2.8473,3.2595
1.0786,0.2224,-0.0803,13.3817,3.4351,2.8931
1.0806,0.217,-0.083,14.2672,4.1145,2.771
1.0801,0.228,-0.0862,15.2366,4.1527,2.4427
1.0784,0.2334,-0.1018,16.0153,4.0229,2.0534
1.0708,0.2268,-0.1052,16.5878,3.9771,1.8702
1.0808,0.2263,-0.1201,17.1908,3.7557,1.542
1.0806,0.2395,-0.1406,17.5191,3.2443,1.0305
1.0835,0.2383,-0.1477,17.8244,3.0305,0.687
1.0867,0.2463,-0.1565,17.8092,2.9237,0.458
1.0867,0.2485,-0.1616,17.6031,2.5954,0.1527
1.0852,0.2524,-0.1863,17.5267,2.2824,-0.7099
1.0845,0.2642,-0.2073,17.0305,2.0916,-1.5496
1.0835,0.2583,-0.2141,16.4962,1.7939,-2.2901
1.0813,0.2656,-0.2273,15.855,1.5802,-2.9542
1.0842,0.2671,-0.2327,14.9008,0.9771,-3.6412
1.0767,0.2639,-0.2585,13.8168,0.7328,-4.0229
1.0728,0.269,-0.2422,12.8702,0.4046,-4.7023
