ax,ay,az,gx,gy,gz
1.0662,-0.1277,0.4407,133.8168,-35.0153,79.6412
1.0894,-0.1228,0.4368,139.5802,-36.8168,79.687
1.1213,-0.1252,0.4202,145.2061,-38.313,79.7176
1.1338,-0.1174,0.4128,150.4504,-39.2061,79.5649
1.1611,-0.1191,0.3906,156.1908,-40.1298,79.0229
1.1853,-0.1267,0.3779,161.6794,-40.5878,78.145
1.2117,-0.1309,0.3486,166.5267,-40.8702,77.4962
1.2412,-0.1294,0.3267,171.2672,-40.3817,76.084
1.2734,-0.1292,0.302,175.6641,-39.8626,74.4427
1.2976,-0.1301,0.2795,179.6336,-39.0458,73.0534
1.3174,-0.1279,0.2476,183.3053,-38.2824,71.1908
1.3499,-0.1191,0.22,187.0534,-36.9237,69.3053
1.3555,-0.1233,0.2087,190.0916,-35.0229,67.2595
1.377,-0.115,0.1807,192.9008,-32.771,65.4351
1.4026,-0.1099,0.157,195.5725,-30.5496,63.1985
1.4302,-0.1108,0.127,197.6183,-28.3588,61.2977
1.4553,-0.1055,0.1091,199.5114,-25.771,59.3664
1.4617,-0.0864,0.0854,201.145,-23.2214,57.2061
1.4807,-0.0798,0.0784,202.6947,-20.6947,55.4427
1.4934,-0.0764,0.0693,203.855,-18.2061,53.5496
1.4983,-0.0769,0.063,204.8931,-15.6412,51.3282
1.5146,-0.0725,0.0608,205.7481,-14.0534,49.1756
1.5276,-0.0774,0.0513,206.3206,-13.4656,47.1679
1.5471,-0.0762,0.0596,206.771,-13.8092,45.0229
1.5642,-0.0913,0.0747,207.1527,-14.771,42.6412
1.5793,-0.105,0.0769,207.458,-16.2901,39.8855
1.6045,-0.1243,0.0793,207.7099,-18.2366,36.4504
1.6179,-0.1333,0.0691,208.3512,-20.4198,32.9695
1.6277,-0.1411,0.0813,209.0076,-22.4198,29.1145
1.6475,-0.1572,0.0806,210.1679,-25.3053,24.2672
1.6702,-0.1704,0.0857,211.3359,-28.6489,19.2443
1.698,-0.1792,0.0769,212.8702,-32.5725,13.7176
1.7017,-0.189,0.0618,214.7023,-36.916,7.8855
1.7241,-0.199,0.0449,216.7176,-41.7481,1.8626
1.7476,-0.2048,0.0266,218.9542,-47.0076,-4.771
1.7725,-0.2029,-0.0039,221.0458,-51.4885,-10.8168
1.7991,-0.2068,-0.0232,223.0,-56.4809,-17.5878
1.8059,-0.2024,-0.0371,224.1374,-61.145,-23.4275
1.8367,-0.1921,-0.0527,225.1679,-66.3435,-29.9389
1.8762,-0.1831,-0.0649,225.9389,-71.1069,-36.2901
1.8923,-0.1643,-0.0999,226.313,-74.8092,-42.8855
1.9272,-0.1472,-0.1306,226.458,-77.8168,-49.8168
1.9531,-0.1392,-0.1567,226.0153,-80.0076,-56.8626
1.9783,-0.134,-0.1851,225.458,-82.084,-64.2824
1.9941,-0.1455,-0.2061,224.4657,-83.8397,-72.3206
1.9999,-0.1504,-0.2168,223.2595,-84.9847,-79.7863
1.9999,-0.1533,-0.2327,221.9389,-86.4351,-88.8092
1.9999,-0.1614,-0.2456,220.3359,-87.7099,-97.7634
1.9999,-0.1731,-0.2639,218.9695,-88.2824,-105.9618
1.9999,-0.1858,-0.2783,217.4962,-88.7099,-115.1756
1.9999,-0.1897,-0.2849,215.8473,-88.9542,-123.8855
1.9999,-0.1836,-0.292,214.5954,-89.0076,-132.6107
1.9999,-0.1956,-0.3103,213.3359,-89.5038,-141.0916
1.9958,-0.2004,-0.3203,212.229,-91.0076,-151.1908
1.9944,-0.2141,-0.3303,211.4122,-91.0992,-159.6641
1.9753,-0.2253,-0.3396,210.7939,-93.5725,-167.3817
1.969,-0.2268,-0.3469,210.3282,-94.7939,-175.0916
1.9653,-0.2375,-0.3469,209.8473,-96.0534,-181.9313
1.96,-0.2363,-0.3467,209.3206,-96.4351,-189.9237
1.9514,-0.2322,-0.3665,209.2519,-100.3664,-197.9389
1.9463,-0.23,-0.3845,209.4122,-103.2595,-205.3206
1.9475,-0.2244,-0.3936,209.0611,-106.4657,-213.3282
1.9397,-0.2266,-0.4175,209.1221,-110.229,-221.4886
1.9304,-0.2178,-0.4316,208.4427,-113.8397,-229.2977
1.9143,-0.2166,-0.4561,207.9084,-117.6107,-237.8702
1.8936,-0.2205,-0.4863,206.8015,-121.8244,-246.3893
1.8953,-0.2178,-0.5032,205.4122,-125.5267,-250.1374
1.8748,-0.2151,-0.5298,204.0076,-130.2366,-250.1374
1.8516,-0.219,-0.5691,201.855,-134.9695,-250.1374
1.8496,-0.2141,-0.6133,199.5954,-139.2366,-250.1374
1.8276,-0.2068,-0.6309,196.855,-143.3053,-250.1374
1.8032,-0.1958,-0.6704,193.771,-146.8321,-250.1374
1.7932,-0.1858,-0.7056,190.1756,-149.9924,-250.1374
1.7703,-0.1785,-0.7373,185.855,-151.8779,-250.1374
1.7676,-0.1704,-0.7681,181.6565,-152.9008,-250.1374
1.7471,-0.1538,-0.7949,176.6412,-153.6183,-250.1374
1.7229,-0.1426,-0.8252,171.5191,-153.0153,-250.1374
1.7002,-0.1277,-0.855,166.1908,-151.1603,-250.1374
1.6719,-0.1238,-0.8867,160.7099,-148.6183,-250.1374
1.6497,-0.1179,-0.9126,154.7328,-145.6794,-250.1374
1.6216,-0.1089,-0.9324,148.9847,-142.4122,-250.1374
1.5896,-0.1016,-0.9458,143.4809,-138.5267,-250.1374
1.5674,-0.1038,-0.9629,137.2519,-134.5114,-250.1374
1.5522,-0.1001,-0.9788,131.1908,-130.3588,-250.1374
1.5266,-0.1006,-0.98,125.0305,-126.2519,-250.1374
1.4978,-0.092,-0.9968,118.2137,-122.6489,-250.1374
1.4724,-0.0906,-0.9941,112.5573,-119.3817,-250.1374
1.4541,-0.0828,-0.9758,105.2977,-115.7405,-250.1374
1.4299,-0.061,-0.9934,98.4885,-111.7023,-250.1374
1.3989,-0.0369,-0.988,91.5725,-106.2595,-250.1374
1.3491,-0.0193,-0.979,84.5038,-99.5802,-250.1374
1.3142,-0.0081,-0.9753,78.6565,-94.7634,-250.1374
1.2661,0.0066,-0.9685,72.9695,-87.9618,-250.1374
1.2114,0.0134,-0.9902,68.2901,-80.8931,-250.1374
1.1548,0.0107,-0.9995,63.8855,-74.0534,-250.1374
1.1033,0.01,-1.042,60.2977,-66.5267,-250.1374
1.0481,0.0205,-1.0684,57.4198,-58.1679,-250.1374
0.9873,0.0334,-1.1196,55.0687,-49.7863,-250.1374
0.9136,0.0549,-1.1606,53.313,-41.1221,-250.1374
0.8894,0.0571,-1.1809,52.0229,-33.5115,-250.1374
0.8301,0.0835,-1.1963,50.2595,-26.2443,-250.1374
0.772,0.1118,-1.2183,48.0305,-20.5802,-250.1374
0.74,0.144,-1.2148,45.3664,-17.084,-250.1374
0.6899,0.1641,-1.1819,41.5496,-16.5802,-250.1374
0.6416,0.2104,-1.1814,37.0076,-16.4962,-250.1374
0.5906,0.2603,-1.1841,32.1603,-17.1679,-250.1374
0.5291,0.2993,-1.1917,26.9313,-18.8473,-250.1374
0.4836,0.3367,-1.1831,20.1679,-22.8626,-250.1374
0.4028,0.3796,-1.1638,12.7557,-30.1069,-250.1374
0.3689,0.4021,-1.1636,6.2824,-38.0,-250.1374
0.3513,0.4109,-1.1624,0.3282,-47.6031,-250.1374
0.3105,0.4365,-1.1648,-6.0153,-59.7939,-250.1374
0.2852,0.4561,-1.1836,-12.5191,-72.8168,-250.1374
0.2551,0.489,-1.1851,-18.9313,-86.1985,-250.1374
0.2305,0.5334,-1.1956,-25.7328,-99.6565,-250.1374
0.2024,0.5752,-1.209,-32.9237,-114.3969,-250.1374
0.1682,0.6038,-1.2268,-40.4122,-129.0153,-250.1374
0.1365,0.6365,-1.2307,-48.1298,-144.6183,-250.1374
0.1016,0.636,-1.2383,-56.3817,-161.9313,-250.1374
0.0969,0.626,-1.2317,-65.0305,-181.4733,-250.1374
0.0671,0.6167,-1.2449,-74.0076,-203.1527,-250.1374
0.041,0.6021,-1.2698,-83.1527,-226.5191,-250.1374
0.0271,0.5916,-1.281,-92.9008,-250.1374,-250.1374
-0.0039,0.6016,-1.2986,-102.7481,-250.1374,-250.1374
-0.0347,0.6431,-1.3154,-112.9389,-250.1374,-250.1374
-0.0527,0.6794,-1.3025,-123.7939,-250.1374,-250.1374
-0.072,0.7009,-1.2944,-134.5954,-250.1374,-250.1374
-0.0776,0.7068,-1.2883,-146.084,-250.1374,-250.1374
-0.0908,0.6736,-1.2944,-158.2061,-250.1374,-250.1374
-0.1113,0.5725,-1.322,-171.3435,-250.1374,-250.1374
-0.146,0.4519,-1.3586,-185.1908,-250.1374,-250.1374
-0.1809,0.3364,-1.3682,-199.2214,-250.1374,-250.1374
-0.1963,0.2651,-1.3364,-212.6031,-250.1374,-250.1374
-0.2012,0.2725,-1.2498,-224.6031,-250.1374,-250.1374
-0.1682,0.2896,-1.178,-235.4351,-250.1374,-250.1374
-0.1516,0.2957,-1.1418,-245.2824,-250.1374,-250.1374
-0.0859,0.2903,-1.1099,-250.1374,-250.1374,-250.1374
-0.0032,0.2979,-1.0906,-250.1374,-250.1374,-247.084
0.0718,0.3074,-1.0811,-250.1374,-250.1374,-240.7481
0.2012,0.3257,-1.1182,-250.1374,-250.1374,-234.1985
0.3301,0.3506,-1.1313,-250.1374,-250.1374,-227.1527
0.458,0.3628,-1.1272,-250.1374,-250.1374,-220.7557
0.5654,0.3467,-1.1052,-250.1374,-250.1374,-215.2137
0.6646,0.3279,-1.0662,-250.1374,-250.1374,-210.2672
0.7095,0.3064,-1.0464,-250.1374,-250.1374,-206.3512
0.8088,0.2664,-1.0535,-250.1374,-250.1374,-202.7099
0.8816,0.2319,-1.0479,-250.1374,-250.1374,-200.2595
0.9446,0.2124,-1.0366,-250.1374,-250.1374,-198.3435
0.9829,0.2019,-1.0046,-250.1374,-250.1374,-198.2443
0.9932,0.1887,-0.9744,-250.1374,-250.1374,-198.9008
0.9949,0.1926,-0.9517,-250.1374,-250.1374,-200.229
0.9883,0.1902,-0.9241,-250.1374,-250.1374,-202.1603
0.9668,0.2053,-0.9006,-246.626,-250.1374,-204.2748
0.9075,0.2134,-0.8892,-240.6183,-234.4809,-206.4046
0.8813,0.2146,-0.8735,-234.9847,-216.9847,-208.1985
0.8108,0.2097,-0.8435,-229.3969,-198.9008,-209.8244
0.7207,0.217,-0.8328,-224.1221,-184.374,-210.8855
0.6294,0.22,-0.8115,-219.3282,-173.229,-211.3435
0.5208,0.2769,-0.8174,-214.7786,-164.9618,-210.9542
0.4038,0.3193,-0.8289,-210.5878,-159.2443,-210.3817
0.2878,0.3437,-0.8237,-207.313,-157.2901,-209.313
0.1846,0.332,-0.822,-204.6565,-160.1756,-207.1298
0.0703,0.344,-0.8484,-204.1603,-164.458,-205.5191
-0.0305,0.3611,-0.8572,-204.4427,-170.8855,-203.8321
-0.1453,0.3811,-0.8374,-205.8931,-179.1603,-202.4657
-0.2441,0.4082,-0.8376,-208.0305,-189.3969,-201.0153
-0.344,0.4487,-0.8062,-210.7557,-200.8702,-199.9695
-0.4216,0.4836,-0.783,-213.7023,-212.9695,-198.8779
-0.4673,0.4995,-0.7649,-217.0687,-226.6641,-197.4275
-0.5374,0.5322,-0.7195,-220.687,-241.313,-196.2824
-0.6042,0.5515,-0.6797,-224.6336,-250.1374,-194.9466
-0.6479,0.5693,-0.6477,-228.4886,-250.1374,-193.4275
-0.6816,0.572,-0.6143,-232.2977,-250.1374,-191.374
-0.7021,0.562,-0.5791,-235.9771,-250.1374,-188.6183
-0.7073,0.5525,-0.5444,-239.4809,-250.1374,-185.5343
-0.7019,0.5171,-0.5144,-242.3893,-250.1374,-181.4733
-0.7036,0.5078,-0.4971,-244.7634,-250.1374,-176.8855
-0.689,0.4692,-0.4749,-246.6183,-250.1374,-171.8931
-0.6797,0.4043,-0.4722,-247.9618,-250.1374,-166.1298
-0.676,0.3066,-0.4697,-248.7786,-250.1374,-160.6031
-0.6531,0.1582,-0.4749,-249.0382,-250.1374,-155.2061
-0.6614,0.0054,-0.4502,-249.1221,-250.1374,-149.7176
-0.6277,-0.116,-0.437,-248.7252,-250.1374,-144.2901
-0.563,-0.1509,-0.4883,-246.8092,-250.1374,-137.9237
-0.5012,-0.1016,-0.5173,-243.4198,-250.1374,-130.0763
-0.4736,-0.0417,-0.5232,-237.7634,-250.1374,-121.1374
-0.4055,0.0857,-0.5593,-230.7634,-250.1374,-111.5267
-0.3325,0.2336,-0.6094,-222.0229,-250.1374,-100.5802
-0.2764,0.3601,-0.6421,-212.855,-240.3359,-88.9618
-0.2366,0.4399,-0.6304,-203.8779,-209.9542,-77.3969
-0.2227,0.4717,-0.6057,-195.7176,-180.0763,-65.2443
-0.2253,0.4844,-0.5876,-188.2443,-149.6336,-51.458
-0.3105,0.4609,-0.5017,-182.0763,-125.4351,-39.4351
-0.3882,0.4463,-0.4392,-177.8473,-111.626,-28.8931
-0.3721,0.4629,-0.4561,-174.3282,-95.1985,-17.8168
-0.3184,0.4922,-0.6033,-170.6718,-68.9237,-3.6947
-0.3086,0.5371,-0.6116,-167.4809,-44.5878,10.7939
-0.366,0.584,-0.5073,-165.2977,-31.6489,24.5649
-0.4426,0.6086,-0.4565,-164.4733,-23.2061,37.1603
-0.4692,0.6223,-0.4397,-164.7023,-15.4962,49.1527
-0.4851,0.6345,-0.3992,-165.5343,-9.1985,60.1756
-0.499,0.6296,-0.3713,-167.1832,-4.6107,70.2137
-0.5154,0.6289,-0.3599,-168.9771,-2.3435,78.6489
-0.5244,0.6213,-0.3391,-171.0611,-1.8473,85.4351
-0.5295,0.6133,-0.2852,-173.145,-4.2366,91.1908
-0.5349,0.6133,-0.2427,-175.0611,-8.8397,95.0382
-0.5356,0.6138,-0.2085,-176.3588,-14.8473,97.7405
-0.5273,0.6162,-0.1653,-178.0229,-21.9847,100.0687
-0.4985,0.6316,-0.1436,-178.8168,-29.8931,101.7176
-0.4744,0.6379,-0.1445,-179.7023,-38.1527,102.1985
-0.4419,0.6401,-0.1426,-180.2977,-46.3206,102.458
-0.415,0.6421,-0.1304,-180.7099,-55.3588,102.3893
-0.3657,0.6313,-0.1345,-181.1069,-63.3817,102.0458
-0.3201,0.6375,-0.1558,-181.0534,-70.3206,101.458
-0.29,0.6401,-0.1436,-180.9771,-76.0229,100.7863
-0.2566,0.6482,-0.1455,-180.8321,-82.6718,99.0305
-0.2393,0.6672,-0.1501,-180.2061,-88.3969,97.5115
-0.2095,0.667,-0.1399,-179.4809,-94.0916,95.626
-0.1919,0.6465,-0.1155,-178.9008,-100.3359,93.5267
-0.1707,0.6316,-0.1133,-178.4962,-106.855,92.0382
-0.1565,0.6143,-0.1182,-178.0153,-113.3206,90.8779
-0.1421,0.6062,-0.1252,-177.7557,-119.3282,89.4657
-0.1458,0.6042,-0.127,-177.313,-124.8626,88.1221
-0.124,0.6245,-0.156,-176.5191,-129.3893,87.2748
-0.1074,0.6587,-0.1707,-175.8931,-133.2901,86.3359
-0.095,0.6719,-0.1592,-175.374,-136.8168,85.8931
-0.0737,0.6646,-0.1804,-174.8931,-139.7481,85.7863
-0.0671,0.6614,-0.1953,-174.8855,-141.1221,86.0763
-0.0657,0.6492,-0.2109,-175.0153,-141.0382,86.1908
-0.0698,0.6328,-0.219,-175.2824,-140.3893,86.626
-0.0762,0.6179,-0.2202,-175.5573,-139.2977,87.458
-0.0852,0.5879,-0.2224,-176.1069,-137.6718,88.0153
-0.0999,0.5493,-0.229,-176.9695,-135.5725,88.9695
-0.1279,0.5195,-0.2273,-177.771,-132.9237,90.2901
-0.1404,0.4951,-0.2048,-178.9695,-130.2137,92.0305
-0.1582,0.4785,-0.196,-180.0305,-127.0534,94.2366
-0.1755,0.4727,-0.1804,-180.855,-123.4122,97.3588
-0.2024,0.4722,-0.166,-181.2137,-119.3359,100.8168
-0.2153,0.4678,-0.1604,-181.4809,-114.6107,105.1527
-0.231,0.4648,-0.1384,-181.5649,-109.3511,110.3435
-0.2527,0.4687,-0.1123,-181.2595,-104.1145,116.0076
-0.2786,0.4622,-0.0942,-180.6107,-98.0153,122.7328
-0.2971,0.4585,-0.0745,-179.5649,-91.6641,129.9542
-0.3264,0.4524,-0.0581,-178.3512,-86.0076,137.6565
-0.3491,0.4607,-0.02,-176.8626,-80.1298,145.5954
-0.3655,0.4561,0.0039,-175.1832,-74.8321,154.0229
-0.3801,0.448,0.0334,-173.2137,-69.6183,163.3512
-0.3848,0.4353,0.0503,-171.6565,-65.5343,171.4657
-0.3984,0.4131,0.0806,-169.6794,-61.6565,181.229
-0.4111,0.3958,0.0791,-168.0687,-58.1298,190.229
-0.4114,0.3818,0.1174,-166.2824,-55.5191,198.771
-0.4136,0.3789,0.1462,-164.7023,-53.4656,207.5038
-0.4016,0.3855,0.1763,-163.2519,-52.0611,215.9008
-0.3975,0.384,0.1941,-161.2748,-50.8092,224.2824
-0.3875,0.3914,0.2209,-159.6794,-50.0382,232.0916
-0.3816,0.3875,0.2302,-157.687,-49.855,239.1756
-0.366,0.3765,0.2537,-155.4962,-49.9237,246.7557
-0.3472,0.3633,0.2732,-153.6794,-49.7634,250.1298
-0.3345,0.354,0.3174,-151.9847,-49.9542,250.1298
-0.3137,0.3474,0.3625,-150.1985,-50.8931,250.1298
-0.3176,0.3347,0.3918,-148.2595,-52.4427,250.1298
-0.3174,0.314,0.4473,-146.3435,-55.2366,250.1298
-0.3101,0.3167,0.4797,-143.9313,-59.0229,250.1298
-0.3142,0.2935,0.5071,-141.5267,-63.4885,250.1298
-0.3059,0.28,0.5481,-139.0916,-68.8473,250.1298
-0.304,0.2612,0.5657,-136.2672,-74.8321,250.1298
-0.3013,0.249,0.5798,-133.229,-81.2137,250.1298
-0.2886,0.2449,0.5947,-129.9237,-88.313,250.1298
-0.2729,0.2336,0.6067,-126.7176,-96.5878,250.1298
-0.2129,0.2207,0.595,-122.2443,-103.1756,250.1298
-0.2043,0.2122,0.5994,-117.9771,-109.5267,250.1298
-0.1511,0.208,0.5923,-113.7786,-115.1374,250.1298
-0.0942,0.2051,0.5725,-109.458,-119.3511,250.1298
-0.0339,0.2034,0.5525,-104.8779,-121.9466,250.1298
0.0295,0.2014,0.5193,-100.084,-122.3282,250.1298
0.1067,0.1941,0.4878,-95.4504,-120.7939,250.1298
0.177,0.1682,0.4465,-90.4962,-117.5267,250.1298
0.2542,0.145,0.4036,-86.1145,-112.5115,250.1298
0.3162,0.1345,0.3674,-81.5573,-105.3969,250.1298
0.3474,0.1311,0.3665,-76.9466,-96.6336,250.1298
0.3892,0.1289,0.3379,-72.626,-87.7405,250.1298
0.4211,0.1355,0.3311,-68.2595,-77.6412,250.1298
0.4492,0.1125,0.3484,-63.9542,-69.3588,250.1298
0.4622,0.0913,0.3564,-59.8855,-61.9695,250.1298
0.4819,0.0737,0.3518,-56.0992,-54.6641,250.1298
0.4951,0.0503,0.3696,-52.6336,-47.4427,250.1298
0.4895,0.0403,0.4253,-49.7099,-42.6641,250.1298
0.4946,0.0374,0.4456,-47.2748,-39.1069,250.1298
0.4919,0.0391,0.4526,-44.6565,-35.8397,250.1298
0.4934,0.0354,0.4934,-42.1145,-33.7939,250.1298
0.4893,0.0527,0.5146,-39.9542,-32.3053,250.1298
0.4929,0.0669,0.5432,-37.5038,-30.6336,250.1298
0.4919,0.0937,0.5786,-34.9084,-29.2061,250.1298
0.501,0.1099,0.6077,-32.5038,-28.0763,250.1298
0.4968,0.0845,0.6248,-30.2366,-25.9618,250.1298
0.5173,0.0889,0.6331,-27.8168,-24.6641,250.1298
0.5208,0.0803,0.6655,-25.1069,-24.3053,250.1298
0.511,0.061,0.7095,-22.458,-24.5267,250.1298
0.5039,0.0527,0.7417,-19.5496,-25.1221,250.1298
0.4939,0.0432,0.7905,-16.1145,-26.8473,250.1298
0.4861,0.0369,0.8386,-12.0992,-29.9542,250.1298
0.4639,0.0356,0.8994,-8.1985,-34.2824,250.1298
0.4536,0.0251,0.9512,-3.8015,-39.7634,250.1298
0.4417,0.0103,0.9983,0.7863,-46.0916,250.1298
0.4409,0.0024,1.0354,5.8473,-52.7176,250.1298
0.4419,-0.0151,1.0791,11.0916,-60.1756,250.1298
0.4431,-0.0425,1.1147,16.7252,-67.7481,250.1298
0.4705,-0.0691,1.1387,22.6794,-74.6489,250.1298
0.4976,-0.0862,1.156,29.1298,-81.5038,250.1298
0.5557,-0.1028,1.1411,36.7863,-87.374,250.1298
0.6387,-0.1206,1.1201,44.9771,-90.6412,250.1298
0.7344,-0.1538,1.082,53.8397,-92.8702,250.1298
0.8425,-0.1782,1.0059,63.8168,-92.916,250.1298
0.8958,-0.1924,0.9773,73.855,-87.3206,250.1298
1.0107,-0.2156,0.9116,84.458,-80.0,250.1298
1.1121,-0.2246,0.8149,95.5191,-69.2519,250.1298
1.2114,-0.2412,0.7485,106.2061,-56.2443,250.1298
1.2778,-0.251,0.6897,116.1374,-41.8626,250.1298
1.3401,-0.271,0.6348,125.5802,-26.9466,250.1298
1.396,-0.28,0.5947,135.3053,-11.8244,250.1298
1.4482,-0.2781,0.5747,142.9771,3.0916,250.1298
1.4622,-0.2759,0.5671,149.855,16.5802,250.1298
1.4966,-0.2395,0.5811,156.8473,30.8473,250.1298
1.5039,-0.198,0.5923,161.8626,40.5878,250.1298
1.4763,-0.1777,0.6243,165.4962,47.6489,250.1298
1.4951,-0.1643,0.6235,168.4351,52.229,250.1298
1.4751,-0.1426,0.6353,170.5725,54.4885,250.1298
1.4509,-0.1323,0.6602,172.6565,54.8855,250.1298
1.4246,-0.1179,0.6719,174.2748,52.7328,250.1298
1.4167,-0.1052,0.6555,175.6107,49.6107,250.1298
1.4128,-0.0967,0.6316,176.9771,45.2443,250.1298
1.4016,-0.0889,0.6145,177.8092,40.1756,250.1298
1.4026,-0.0818,0.5669,178.4427,35.0611,250.1298
1.4053,-0.0811,0.5432,178.916,30.1679,250.1298
1.4241,-0.0762,0.5029,179.0153,26.0611,250.1298
1.4368,-0.072,0.4541,178.9084,22.7328,250.1298
1.4495,-0.0608,0.4246,178.4733,20.2519,250.1298
1.4709,-0.0564,0.3982,177.7405,18.6183,250.1298
1.4839,-0.0471,0.3782,176.9389,17.8244,250.1298
1.4941,-0.0386,0.3665,175.8473,17.2748,250.1298
1.4978,-0.0249,0.3542,174.7405,16.6031,250.1298
1.4961,-0.019,0.3499,173.5267,15.626,250.1298
1.5046,-0.0115,0.3164,172.3053,14.2824,250.1298
1.5117,-0.0149,0.2859,170.9313,12.7099,250.1298
1.5269,-0.0186,0.2263,169.5725,11.1908,250.1298
1.5435,-0.0247,0.1753,167.8092,10.3817,250.1298
1.5588,-0.0312,0.1191,166.1756,10.3053,250.1298
1.5896,-0.0396,0.0706,164.313,11.1069,250.1298
1.6074,-0.0391,0.0225,162.2977,12.7634,250.1298
1.6194,-0.0378,0.0071,159.8931,15.145,250.1298
1.6184,-0.0339,0.0103,157.7786,17.5114,250.1298
1.6243,-0.0332,0.0217,155.145,19.5267,250.1298
1.6252,-0.0251,0.031,152.8779,21.1908,247.084
1.624,-0.0061,0.0684,150.7557,21.9237,243.3359
1.6309,0.0085,0.1094,148.1145,21.8092,239.2519
1.6316,0.0205,0.1428,145.9389,21.5725,235.1985
1.637,0.0308,0.1731,144.2137,20.626,230.1679
1.6406,0.04,0.1973,142.2901,19.6947,225.542
1.6465,0.0464,0.2246,140.8321,19.0382,220.9313
1.6477,0.0623,0.2471,139.8626,18.6947,216.2977
1.6528,0.0615,0.2932,139.0153,18.4733,211.1069
1.6619,0.0627,0.3425,139.1298,18.6718,206.5878
1.6624,0.0566,0.3765,139.6641,19.2824,202.6107
1.6602,0.0483,0.4204,140.916,20.0458,198.1069
1.6667,0.0312,0.4563,143.1756,20.7099,194.5114
1.6667,-0.0044,0.4915,146.1603,20.9924,190.9695
1.6755,-0.0173,0.5037,149.7328,21.3969,188.2366
1.6873,-0.0593,0.5151,154.5038,22.4504,184.7405
1.6987,-0.0981,0.5173,159.7634,24.1756,182.145
1.7104,-0.1133,0.5315,165.9695,26.1527,179.3282
1.719,-0.127,0.5249,172.2901,28.9466,176.4198
1.7258,-0.1367,0.5359,178.9542,32.0,173.6412
1.7258,-0.1445,0.5432,186.2519,35.1145,171.0916
1.7161,-0.1467,0.5662,193.2901,37.771,168.542
1.7148,-0.1467,0.5698,199.8092,39.8702,166.1145
1.6997,-0.1455,0.5825,207.0153,41.6412,163.3817
1.6768,-0.1528,0.6174,213.4351,42.2672,160.7481
1.6323,-0.168,0.6543,221.8473,41.3511,157.374
1.6025,-0.1628,0.6672,227.9924,39.5344,154.8321
1.5649,-0.1641,0.6626,233.2672,36.8702,152.2748
1.532,-0.1746,0.6582,238.1908,33.3664,149.9084
1.4924,-0.176,0.6223,242.9313,29.5267,147.8855
1.4731,-0.1704,0.6252,247.1145,25.9084,145.7634
1.4443,-0.1658,0.6125,250.1298,21.0916,143.6336
1.4185,-0.1545,0.5996,250.1298,16.1832,142.1145
1.3979,-0.1541,0.5647,250.1298,10.6031,140.6336
1.3806,-0.147,0.5391,250.1298,4.7481,139.5649
1.3792,-0.1543,0.4961,250.1298,-1.2595,138.6718
1.3843,-0.1665,0.4338,250.1298,-6.5115,138.1298
1.3967,-0.1763,0.3569,250.1298,-10.458,137.3512
1.4075,-0.186,0.2939,250.1298,-13.5649,137.2672
1.4148,-0.1887,0.2615,250.1298,-15.8168,136.9466
1.4238,-0.1846,0.2029,250.1298,-17.4886,136.626
1.4446,-0.1729,0.1245,250.1298,-18.458,136.229
1.4529,-0.1621,0.062,250.1298,-19.374,136.2901
1.4739,-0.1572,-0.0166,250.1298,-20.1527,135.7099
1.4932,-0.1396,-0.0767,250.1298,-20.0382,134.916
1.5203,-0.1318,-0.1619,250.1298,-19.4656,134.3512
1.5508,-0.1123,-0.2209,250.1298,-18.5038,133.0916
1.5669,-0.1011,-0.2627,250.1298,-17.0229,131.5954
1.6045,-0.0757,-0.3306,248.7557,-15.0992,130.084
1.6345,-0.0447,-0.376,244.3664,-12.7252,128.1298
1.6709,-0.0068,-0.4146,238.8855,-9.9695,125.4657
1.7041,0.0217,-0.4521,233.4427,-7.4656,122.7099
1.7324,0.0532,-0.4778,227.2137,-5.0229,119.2977
1.751,0.0779,-0.5037,220.2214,-3.1985,114.9618
1.772,0.0901,-0.5288,213.1832,-1.7328,110.2137
1.7893,0.0984,-0.5293,205.5343,-1.3435,105.0229
1.7876,0.0942,-0.5093,198.1145,-1.6336,99.7939
1.804,0.0891,-0.5125,189.458,-3.2519,92.6794
1.7983,0.0979,-0.5012,181.1527,-4.6947,85.1527
1.8149,0.1077,-0.4875,172.8702,-7.0611,77.8015
1.8081,0.1206,-0.4692,165.0382,-10.0,70.2061
1.8098,0.1335,-0.4524,157.7023,-13.1679,61.8702
1.8105,0.1431,-0.4299,150.4809,-16.3969,53.8931
1.7949,0.1577,-0.4087,143.6031,-19.9466,45.7252
1.7827,0.1536,-0.3848,137.6336,-23.7099,38.3206
1.7734,0.1562,-0.3618,131.6107,-27.916,29.8779
1.762,0.1592,-0.3184,126.2595,-32.1908,22.3588
1.7485,0.1633,-0.281,121.2137,-36.687,15.8931
1.7322,0.1582,-0.2415,117.4962,-40.8779,9.3817
1.7134,0.156,-0.2148,113.5954,-44.9084,3.0
1.6924,0.1399,-0.1807,110.8015,-48.5802,-2.9618
1.676,0.1184,-0.1501,108.3588,-51.5649,-7.5725
1.6558,0.1018,-0.1255,106.9466,-54.3817,-12.6947
1.6343,0.0737,-0.1086,106.0916,-56.2748,-16.9466
1.6108,0.0503,-0.0845,105.687,-58.0458,-20.9008
1.6028,0.0359,-0.0681,106.1374,-59.5267,-25.2901
1.5781,0.0042,-0.0549,107.3206,-60.8321,-28.7557
1.5557,-0.0156,-0.0415,108.7405,-61.7557,-32.084
1.5266,-0.0437,-0.0188,111.0916,-62.542,-35.4504
1.5264,-0.0461,-0.0176,113.4809,-62.9008,-37.9847
1.5217,-0.0483,-0.011,116.8015,-62.9924,-40.374
1.5059,-0.0547,0.0134,119.4275,-63.0458,-42.4198
1.4966,-0.0527,0.0059,122.8321,-62.3664,-44.374
1.4871,-0.0457,0.0137,125.5267,-61.2824,-46.1908
1.4832,-0.042,-0.0017,128.8779,-60.1145,-47.9847
1.47,-0.0544,-0.0007,132.0153,-59.0534,-49.7405
1.4629,-0.0645,-0.0273,134.9313,-57.9237,-51.1679
1.4602,-0.0676,-0.0442,137.5343,-56.6947,-53.1832
1.4568,-0.0671,-0.061,139.8244,-55.2137,-55.145
1.4426,-0.0649,-0.0889,141.9008,-53.5038,-57.0534
1.4385,-0.0613,-0.1313,143.4275,-51.1679,-59.313
1.4312,-0.0479,-0.1636,144.9084,-48.8397,-61.7863
1.4268,-0.0359,-0.2117,146.0,-46.4962,-64.0687
1.4185,-0.0232,-0.2559,146.8626,-43.2061,-66.0763
1.4084,-0.0142,-0.2747,147.2901,-40.0305,-67.9389
1.384,0.0022,-0.3042,147.2061,-37.1756,-69.8779
1.3809,0.0142,-0.3201,146.8168,-33.3282,-71.6794
1.3701,0.0203,-0.3384,145.9389,-29.7939,-72.8702
1.3611,0.0317,-0.3572,144.8855,-26.4198,-74.2672
1.3342,0.0454,-0.3733,143.458,-23.145,-75.458
1.3174,0.0571,-0.3914,141.8244,-20.0305,-76.6412
1.2961,0.0623,-0.4141,140.229,-17.1908,-77.374
1.2773,0.0801,-0.4146,138.2519,-14.313,-78.1527
1.2749,0.1023,-0.4143,135.8779,-11.9466,-78.4046
1.2534,0.105,-0.4263,133.8244,-9.8779,-78.6947
1.2483,0.1057,-0.4441,131.8015,-8.0611,-78.4809
1.2424,0.1165,-0.4487,129.4351,-6.3053,-78.626
1.2261,0.1191,-0.4602,127.2061,-5.0382,-78.8321
1.2114,0.1267,-0.4641,124.9771,-4.3053,-78.6031
1.1904,0.1282,-0.4719,122.5115,-3.5267,-79.1145
1.1768,0.135,-0.4802,119.2519,-2.7786,-79.4809
1.1606,0.1416,-0.4883,117.3511,-2.4351,-79.7405
1.1516,0.1455,-0.4907,115.2595,-2.687,-80.0916
1.1396,0.1516,-0.4917,112.2366,-3.2595,-80.8397
1.1257,0.1667,-0.4985,109.0534,-3.9084,-81.6107
1.1125,0.1704,-0.5181,105.8931,-4.5191,-82.1527
1.1001,0.1897,-0.5264,102.5496,-5.313,-82.9466
1.0786,0.1951,-0.5234,99.1832,-6.2595,-84.0534
1.0654,0.2026,-0.5381,95.5343,-7.3588,-85.0305
1.0439,0.2104,-0.5337,91.9313,-8.8779,-85.4504
1.0173,0.2117,-0.5315,88.0382,-10.771,-86.374
0.991,0.2117,-0.5369,84.3282,-12.8092,-87.3817
0.9788,0.207,-0.5396,80.2977,-14.9924,-87.9771
0.9514,0.2002,-0.5342,76.5573,-17.626,-88.8015
0.9199,0.1931,-0.5356,73.0,-20.229,-89.4504
0.8928,0.1887,-0.5452,69.458,-23.2214,-89.1679
0.8547,0.1941,-0.5376,66.2366,-26.0153,-89.3282
0.8186,0.1953,-0.5408,63.1527,-29.0687,-89.2901
0.7898,0.197,-0.542,60.5344,-31.7557,-88.2901
0.7605,0.2065,-0.5459,57.9008,-34.6031,-87.1908
0.7507,0.2124,-0.5562,55.5573,-36.9695,-85.3664
0.7227,0.2158,-0.5588,53.2366,-39.4122,-82.9008
0.6997,0.2334,-0.553,51.145,-41.2748,-80.2061
0.6697,0.2388,-0.5552,48.3511,-43.542,-76.3053
0.6582,0.2458,-0.5471,45.9466,-45.458,-71.8092
0.6357,0.2612,-0.561,43.4427,-46.6641,-67.5878
0.6243,0.2715,-0.5586,41.0229,-47.6031,-63.0611
0.6169,0.2861,-0.5613,38.5573,-48.229,-57.8092
0.6133,0.2974,-0.5645,36.229,-48.771,-52.8855
0.6077,0.2983,-0.5642,33.8015,-48.3664,-47.5878
0.6086,0.3083,-0.5728,31.4198,-47.1069,-42.0992
0.6116,0.3132,-0.5759,29.2366,-45.8473,-37.2443
0.6243,0.325,-0.5813,27.0153,-43.5038,-31.0992
0.6238,0.3303,-0.5876,24.5344,-41.0305,-25.8931
0.6375,0.3374,-0.572,22.3435,-38.1756,-20.4886
0.6392,0.3408,-0.5754,20.2061,-35.2214,-15.3511
0.6519,0.3525,-0.5679,17.9084,-32.2901,-10.5191
0.6731,0.3508,-0.5735,15.7786,-29.1603,-5.7252
0.6887,0.3474,-0.5598,13.4885,-26.0076,-1.2977
0.7187,0.3394,-0.5515,11.145,-23.1985,2.7252
0.7356,0.335,-0.5571,9.1374,-20.4351,6.2672
0.7593,0.3291,-0.5444,6.8931,-17.4275,9.5954
0.7739,0.3203,-0.5342,4.8473,-14.4198,12.3282
0.7976,0.3105,-0.5254,2.8473,-11.3664,14.626
0.8171,0.3123,-0.5183,1.229,-8.4046,16.3282
0.8384,0.3022,-0.5051,-0.542,-5.6641,17.7481
0.8599,0.302,-0.4756,-2.6107,-3.0534,18.687
0.8762,0.3093,-0.4509,-4.0153,-1.4733,19.1298
0.8833,0.3081,-0.4458,-5.5878,-0.1603,19.4198
0.8982,0.3,-0.4189,-7.3053,0.771,18.8473
0.9167,0.3013,-0.4067,-8.4885,1.1527,18.6107
0.9214,0.292,-0.3826,-9.6336,1.4733,17.9084
0.9368,0.282,-0.3616,-10.5725,1.0992,16.8702
0.9446,0.2717,-0.3521,-11.2901,0.7023,15.3359
0.9585,0.2671,-0.3462,-12.0229,0.3435,13.9389
0.9607,0.2517,-0.3281,-12.8397,-0.313,12.1985
0.9709,0.2378,-0.3184,-13.2595,-0.9084,10.2977
0.9739,0.2368,-0.3059,-13.7786,-1.5725,8.6947
0.978,0.2312,-0.3025,-14.3206,-2.2366,6.855
0.9839,0.2312,-0.2844,-14.6794,-3.1298,4.6718
0.9814,0.2336,-0.2668,-15.1221,-3.6794,3.0763
0.9875,0.2366,-0.2532,-15.4122,-4.229,1.3893
0.9841,0.2417,-0.2466,-15.8168,-4.8015,-0.3206
0.9824,0.2458,-0.2419,-16.0153,-5.6718,-2.0076
0.9846,0.2407,-0.2285,-16.0458,-6.2901,-3.5191
0.9741,0.2354,-0.2214,-16.0916,-7.1145,-4.9771
0.9744,0.2371,-0.2151,-16.2366,-7.3435,-6.7481
0.9719,0.2429,-0.2178,-15.8397,-7.7023,-8.1069
0.9604,0.2463,-0.2029,-15.4046,-7.9466,-9.5267
0.9502,0.2466,-0.1938,-14.9313,-8.0611,-10.4656
0.9451,0.2498,-0.1897,-14.1145,-8.0611,-11.1221
0.9346,0.2456,-0.1956,-13.6336,-8.0611,-11.9466
0.9258,0.2375,-0.1816,-12.8168,-8.1145,-12.3664
0.9207,0.2361,-0.1736,-12.1145,-8.1985,-12.2595
0.9109,0.2368,-0.1731,-11.6489,-7.9466,-12.0916
0.9038,0.2253,-0.1743,-10.8321,-7.9924,-11.8855
0.8994,0.2324,-0.1631,-10.0687,-8.0534,-11.3282
0.8943,0.2432,-0.1665,-9.3969,-7.9313,-10.2519
0.8867,0.2517,-0.1611,-8.7023,-7.7252,-9.5038
0.8877,0.2615,-0.1477,-7.8779,-7.7023,-8.6183
0.8865,0.2637,-0.1545,-7.1908,-7.5267,-7.3817
0.8872,0.2656,-0.1526,-6.7176,-7.687,-6.3969
0.8936,0.2717,-0.1492,-6.0992,-7.5115,-5.5649
0.8918,0.2705,-0.1536,-5.4198,-7.5115,-4.458
0.8867,0.271,-0.1604,-4.9847,-7.3893,-3.8626
0.8979,0.2688,-0.1694,-4.5038,-7.2443,-2.9466
0.9016,0.2761,-0.1812,-3.8626,-6.7786,-2.0687
0.9089,0.272,-0.1846,-3.7634,-6.3817,-1.145
0.9167,0.2715,-0.1787,-3.5802,-6.1756,-0.1679
0.9189,0.2764,-0.1819,-3.5725,-5.8092,0.6183
0.9302,0.2727,-0.1777,-3.5954,-5.5267,1.2977
0.9316,0.2815,-0.1816,-3.6031,-5.2519,1.7481
0.9407,0.283,-0.1824,-3.8092,-4.9237,1.9771
0.9419,0.2866,-0.1846,-4.1374,-4.687,2.458
0.9365,0.2825,-0.1787,-4.4351,-4.1908,2.7405
0.9485,0.2922,-0.1824,-4.9771,-3.916,2.7557
0.9526,0.2964,-0.1865,-5.3053,-3.8092,2.916
0.9531,0.2961,-0.1938,-5.8168,-3.5649,3.0611
0.9512,0.2935,-0.1787,-6.4351,-3.4885,3.2824
0.9495,0.2915,-0.1816,-6.6947,-3.5573,3.5267
0.9521,0.2888,-0.177,-7.0458,-3.6641,3.3817
0.9526,0.2881,-0.1758,-7.2977,-3.9542,3.5725
0.9497,0.283,-0.1873,-7.4122,-4.1145,3.4122
0.9539,0.281,-0.1814,-7.4885,-4.374,3.855
0.9521,0.2852,-0.1763,-7.6031,-4.1679,3.8855
0.9609,0.29,-0.1897,-7.9008,-4.145,4.2901
0.9617,0.2913,-0.187,-8.0534,-3.9542,4.5649
0.9634,0.293,-0.1848,-8.5878,-3.771,4.7939
0.9714,0.3008,-0.1841,-8.8779,-3.2901,5.3359
0.9702,0.3069,-0.1726,-9.3359,-2.7939,5.4885
0.9736,0.3064,-0.1821,-9.8855,-2.4122,5.9389
0.9695,0.3057,-0.1746,-10.1069,-2.1298,6.2977
0.9766,0.3025,-0.1814,-10.6183,-1.8168,6.6412
0.9844,0.2942,-0.1799,-11.0,-1.542,7.0992
0.9827,0.3083,-0.1726,-11.1069,-1.3893,7.3664
0.9897,0.3057,-0.1697,-11.3359,-1.0534,7.5191
0.9973,0.3044,-0.1655,-11.4733,-0.5802,7.687
1.0037,0.3054,-0.156,-11.5725,-0.5649,7.7863
1.0112,0.3047,-0.1509,-11.542,-0.4504,8.0458
1.0161,0.3003,-0.1438,-11.4885,-0.4656,7.9924
1.0217,0.2974,-0.1506,-11.313,-0.9618,7.6031
1.0286,0.2942,-0.1353,-11.1985,-1.458,7.4198
1.0352,0.2795,-0.1326,-11.1985,-1.8702,7.2977
1.0425,0.2812,-0.1323,-10.8168,-2.5496,6.6947
1.0481,0.2778,-0.1277,-10.687,-3.2443,6.1298
1.0544,0.2749,-0.1284,-10.5344,-4.2214,5.6718
1.0518,0.2751,-0.1274,-10.1221,-5.1298,4.8015
1.0525,0.271,-0.123,-9.5725,-6.0076,3.9924
1.053,0.2729,-0.1135,-9.3817,-7.1756,2.9466
1.0579,0.2727,-0.1016,-8.9466,-8.1985,2.1679
1.0525,0.2664,-0.1011,-8.2901,-9.2595,1.3359
1.0569,0.2617,-0.1013,-7.6336,-10.9466,0.3893
1.0525,0.2563,-0.0903,-6.855,-12.1374,-0.7786
1.043,0.2544,-0.0857,-6.0687,-13.145,-1.5115
1.0413,0.2551,-0.0979,-5.2748,-14.4427,-2.0305
1.0408,0.2556,-0.0933,-4.5802,-15.5344,-2.4351
1.0359,0.2515,-0.1016,-3.8092,-16.3359,-2.8244
1.0344,0.251,-0.1042,-3.0,-17.2748,-2.9542
1.0349,0.2483,-0.0923,-2.2214,-17.6565,-2.7481
1.0364,0.2483,-0.1067,-1.5191,-17.8473,-2.8702
1.043,0.2397,-0.1223,-0.9618,-17.2977,-2.1832
1.0408,0.2539,-0.1267,-0.4046,-16.6947,-1.8626
1.0452,0.2527,-0.1399,0.2748,-15.6183,-1.3588
1.0493,0.2646,-0.1372,0.2824,-14.4809,-0.5649
1.0476,0.2676,-0.147,0.6794,-13.2748,0.3282
1.0442,0.269,-0.1465,0.7557,-12.1832,0.8092
1.0503,0.2698,-0.1421,0.8779,-10.9389,1.2672
1.0603,0.282,-0.1482,0.7481,-9.6565,2.0611
1.0598,0.2759,-0.1663,0.8702,-8.0382,2.3969
1.063,0.2847,-0.1611,0.8092,-6.8015,2.855
1.0676,0.2751,-0.1655,0.771,-5.1832,3.3053
1.0701,0.2861,-0.1782,0.8168,-3.6183,3.5496
1.0793,0.2866,-0.176,0.4962,-1.7176,3.7786
1.0852,0.2854,-0.1809,0.3511,-0.1527,3.855
1.0859,0.2861,-0.1809,0.2672,1.2977,4.1985
1.0879,0.2876,-0.1746,0.2443,2.855,3.9695
1.0959,0.2932,-0.1785,-0.0611,4.0611,3.9924
