ax,ay,az,gx,gy,gz
0.571,0.1724,-0.071,-9.9466,-92.7481,123.2214
0.5889,0.1694,-0.062,-8.8779,-94.9313,127.4733
0.6116,0.1589,-0.0442,-7.7023,-94.5267,131.5802
0.6172,0.1484,-0.0403,-6.7023,-94.1069,135.8473
0.6409,0.1387,-0.0232,-5.6183,-93.7786,139.6488
0.6621,0.1226,-0.0054,-4.374,-93.458,143.4886
0.6755,0.1138,0.0042,-3.0229,-92.8015,147.626
0.697,0.0906,0.0232,-1.4275,-89.0611,150.855
0.7153,0.0752,0.0417,0.2977,-86.4046,154.5802
0.7485,0.0483,0.0718,2.3664,-84.3282,158.3588
0.759,0.0234,0.0811,4.8168,-81.3206,161.5802
0.771,0.0146,0.0957,7.4122,-78.3588,165.374
0.7874,-0.0066,0.1091,10.3511,-75.3435,168.8473
0.8142,-0.0271,0.134,13.7863,-71.9084,171.9008
0.8281,-0.0391,0.1472,17.1832,-68.3435,175.084
0.8435,-0.0603,0.166,21.1374,-64.7023,178.1908
0.8691,-0.0671,0.1826,25.4962,-60.4885,180.9466
0.8748,-0.0928,0.2051,29.6489,-56.8855,183.374
0.8821,-0.1162,0.2231,33.9008,-52.7863,186.0763
0.8945,-0.1533,0.2417,38.4046,-48.9389,188.1221
0.9077,-0.1675,0.2483,43.1145,-45.3435,189.8626
0.9111,-0.1851,0.2703,47.855,-42.0458,191.5343
0.9197,-0.2126,0.2981,52.7481,-39.9771,193.0
0.9351,-0.2268,0.3289,58.0382,-39.0305,194.1679
0.9446,-0.2546,0.366,63.1527,-39.1221,195.5343
0.9578,-0.2766,0.4075,68.4504,-39.6336,196.6412
0.9775,-0.2942,0.4353,74.1908,-40.5649,197.2977
1.001,-0.3376,0.4482,81.0458,-40.9618,198.0992
0.9949,-0.3528,0.4651,86.855,-41.6412,198.8321
1.0193,-0.3689,0.4746,94.1985,-43.0,198.7863
1.0381,-0.3975,0.4966,101.7481,-44.2595,198.4275
1.0415,-0.4141,0.4993,109.6183,-46.0534,197.5802
1.0549,-0.4409,0.5051,118.4046,-47.5267,196.8244
1.0791,-0.4478,0.5178,125.8168,-49.5496,195.5878
1.1013,-0.4558,0.5283,134.3588,-51.8397,194.1298
1.1182,-0.4644,0.5366,143.3282,-54.4809,192.2901
1.1206,-0.4771,0.5425,151.4351,-57.3206,190.3664
1.145,-0.4939,0.5308,160.8168,-60.4656,188.229
1.1709,-0.5078,0.511,169.0076,-63.0153,186.0534
1.2041,-0.5356,0.4939,177.0611,-65.4809,183.6183
1.2385,-0.5486,0.4697,185.2366,-67.4809,181.4504
1.2649,-0.5574,0.4465,192.5725,-68.8931,179.3206
1.2986,-0.5574,0.4187,199.6031,-70.0611,176.6565
1.3303,-0.5596,0.3901,206.4809,-70.9695,174.1908
1.3599,-0.5557,0.3562,212.8626,-71.3588,171.5802
1.3623,-0.561,0.3472,218.4962,-70.5954,168.5267
1.3911,-0.5759,0.3179,223.9084,-69.2366,165.3969
1.4124,-0.5906,0.2712,228.7405,-67.1756,162.2519
1.4316,-0.6052,0.2383,233.2137,-64.5649,158.5343
1.4468,-0.6165,0.2085,237.2824,-61.6031,154.9695
1.459,-0.6416,0.1829,240.8244,-58.9618,151.3588
1.4656,-0.6562,0.167,243.9695,-55.8397,147.855
1.4705,-0.6753,0.1638,246.7481,-53.1908,144.3512
1.4722,-0.6851,0.1724,249.3282,-51.1221,140.9008
1.4775,-0.7124,0.167,250.1298,-49.9695,137.1069
1.4883,-0.7129,0.1663,250.1298,-50.084,133.7252
1.4988,-0.7051,0.1733,250.1298,-50.229,130.6794
1.5127,-0.6938,0.1672,250.1298,-50.2748,128.5038
1.5186,-0.6831,0.1633,250.1298,-50.687,126.2977
1.542,-0.676,0.1377,250.1298,-49.7786,124.2366
1.5684,-0.6821,0.1179,250.1298,-48.4656,122.2443
1.5798,-0.6848,0.1038,250.1298,-46.4275,120.5725
1.6035,-0.6902,0.0713,250.1298,-43.4122,118.6031
1.6357,-0.7075,0.0481,250.1298,-40.2214,116.8015
1.6572,-0.731,0.0205,250.1298,-36.5267,114.6031
1.6914,-0.7371,-0.0203,250.1298,-32.6718,112.3893
1.7302,-0.7522,-0.0498,250.1298,-28.9084,110.1069
1.7517,-0.7659,-0.0549,250.1298,-25.2443,107.3893
1.7947,-0.7676,-0.0759,250.1298,-21.9237,104.9924
1.8301,-0.7734,-0.0928,250.1298,-19.1985,101.3817
1.8503,-0.7759,-0.0886,250.1298,-16.9847,98.4733
1.886,-0.7695,-0.1077,250.1298,-14.8779,94.4122
1.9265,-0.7654,-0.1194,250.1298,-13.4046,89.916
1.9575,-0.7546,-0.1533,250.1298,-12.4275,84.9618
1.9973,-0.752,-0.1677,250.1298,-11.8015,79.1603
1.9999,-0.7537,-0.1929,250.1298,-11.3435,72.5954
1.9999,-0.7468,-0.2324,250.1298,-11.2366,65.3511
1.9999,-0.7549,-0.2649,250.1298,-11.4198,57.4885
1.9999,-0.7593,-0.3032,250.1298,-11.7405,48.6794
1.9999,-0.7673,-0.3167,250.1298,-12.7328,40.0305
1.9999,-0.7708,-0.3391,250.1298,-14.3511,30.4886
1.9999,-0.7771,-0.3665,250.1298,-17.0763,20.7557
1.9999,-0.7849,-0.396,250.1298,-20.3969,10.687
1.9999,-0.7954,-0.4392,250.1298,-24.0687,0.0992
1.9999,-0.7932,-0.4724,250.1298,-27.7099,-10.229
1.9999,-0.7854,-0.501,250.1298,-31.1221,-20.313
1.9999,-0.7866,-0.5281,250.1298,-34.6412,-30.229
1.9999,-0.7834,-0.5566,250.1298,-38.0611,-39.5038
1.9999,-0.7754,-0.5825,250.1298,-42.0229,-50.1756
1.9999,-0.7632,-0.6104,250.1298,-45.5802,-60.4809
1.9999,-0.7573,-0.6292,250.1298,-49.1603,-70.4733
1.9999,-0.7407,-0.6521,250.1298,-52.9237,-80.7557
1.9999,-0.73,-0.6707,250.1298,-56.2672,-91.7786
1.9999,-0.7288,-0.7051,250.1298,-58.9466,-101.3511
1.9999,-0.7227,-0.7229,250.1298,-60.916,-110.8473
1.9999,-0.7263,-0.7361,250.1298,-62.2214,-120.542
1.9999,-0.7227,-0.7473,250.1298,-62.8168,-131.4122
1.9999,-0.7175,-0.7834,250.1298,-63.0,-141.0763
1.9999,-0.7217,-0.7983,250.1298,-62.3435,-150.9771
1.9999,-0.7234,-0.8069,248.1756,-60.8702,-160.145
1.9999,-0.7151,-0.8127,243.229,-59.0916,-169.3664
1.9999,-0.7166,-0.8335,238.1221,-56.5344,-177.9771
1.9999,-0.7163,-0.8298,233.3435,-52.9542,-186.5267
1.9999,-0.7185,-0.8364,228.855,-49.3969,-194.542
1.9999,-0.7224,-0.8284,224.3817,-45.5191,-202.3969
1.9999,-0.728,-0.8201,220.1298,-41.3588,-209.4962
1.9999,-0.7312,-0.8169,216.6488,-37.3282,-216.2519
1.9999,-0.7402,-0.7998,212.771,-33.2901,-222.2977
1.9999,-0.749,-0.7935,208.8626,-28.458,-230.229
1.9999,-0.7661,-0.7849,205.7939,-25.4351,-235.7863
1.9999,-0.7715,-0.7642,203.0763,-22.5649,-241.3588
1.9999,-0.7854,-0.7388,200.8779,-20.1985,-246.0916
1.9753,-0.7942,-0.7239,198.6947,-18.4733,-250.1374
1.9568,-0.7886,-0.7195,197.3435,-17.0534,-250.1374
1.9294,-0.7886,-0.7009,195.8855,-15.9618,-250.1374
1.9031,-0.7847,-0.6887,194.8779,-15.1527,-250.1374
1.8928,-0.7791,-0.678,194.0763,-15.2824,-250.1374
1.8628,-0.7812,-0.675,193.458,-15.8015,-250.1374
1.8398,-0.7739,-0.6553,193.0,-16.3511,-250.1374
1.8188,-0.7781,-0.6687,192.5267,-17.4886,-250.1374
1.7981,-0.7637,-0.6606,191.9924,-18.8244,-250.1374
1.7656,-0.7622,-0.6689,191.2672,-20.084,-250.1374
1.7439,-0.7515,-0.6675,190.3282,-21.7786,-250.1374
1.7178,-0.7356,-0.6667,189.4886,-23.4733,-250.1374
1.6904,-0.7212,-0.6726,188.5725,-24.7939,-250.1374
1.6667,-0.7144,-0.6694,187.3206,-26.4427,-250.1374
1.6387,-0.7068,-0.6785,185.7939,-28.0763,-250.1374
1.6121,-0.688,-0.6858,183.9618,-30.0153,-250.1374
1.5781,-0.6753,-0.6895,182.229,-32.2214,-250.1374
1.5471,-0.6663,-0.6865,179.8779,-35.374,-250.1374
1.5164,-0.6614,-0.6924,177.0992,-39.0,-250.1374
1.4944,-0.6482,-0.6973,174.5114,-42.7863,-250.1374
1.4707,-0.6392,-0.6956,171.229,-47.0992,-250.1374
1.4531,-0.6294,-0.6973,168.2519,-50.855,-250.1374
1.4336,-0.5999,-0.708,164.916,-54.8092,-250.1374
1.4221,-0.5813,-0.708,161.6107,-57.8397,-250.1374
1.4058,-0.5566,-0.729,157.9084,-59.9847,-250.1374
1.3909,-0.5322,-0.7449,154.3893,-61.313,-250.1374
1.3787,-0.5107,-0.7607,150.8015,-62.0076,-250.1374
1.3694,-0.4722,-0.772,147.2137,-61.4809,-250.1374
1.3645,-0.458,-0.7876,143.3359,-60.4885,-250.1374
1.3591,-0.4409,-0.792,139.7863,-58.9466,-250.1374
1.3503,-0.4148,-0.8079,136.0076,-56.7023,-250.1374
1.3452,-0.3967,-0.814,132.3817,-54.2901,-250.1374
1.3379,-0.364,-0.8252,128.1145,-51.3588,-250.1374
1.3271,-0.353,-0.8401,124.0687,-48.0687,-250.1374
1.3188,-0.3311,-0.8503,119.0382,-44.9084,-250.1374
1.3091,-0.3083,-0.8713,116.5954,-41.1832,-250.1374
1.3003,-0.293,-0.8867,113.7481,-36.9237,-250.1374
1.2891,-0.2759,-0.9092,109.2061,-32.5725,-250.1374
1.291,-0.2683,-0.9219,105.3282,-27.4504,-250.1374
1.2688,-0.2476,-0.9277,101.3359,-22.4656,-250.1374
1.2419,-0.2327,-0.9355,96.9237,-17.2901,-250.1374
1.2214,-0.2136,-0.9438,92.6718,-12.0382,-250.1374
1.1938,-0.2024,-0.9473,88.626,-7.1985,-250.1374
1.1614,-0.1753,-0.9536,84.4275,-2.6336,-250.1374
1.1182,-0.1624,-0.9446,80.4351,1.3588,-250.1374
1.0801,-0.1479,-0.9456,76.2824,4.9542,-250.1374
1.0535,-0.1467,-0.9524,72.3282,8.145,-250.1374
1.0181,-0.1379,-0.957,68.2595,11.1527,-250.1374
0.9729,-0.1248,-0.9578,63.6718,13.7634,-250.1374
0.9204,-0.124,-0.9614,59.4885,15.6412,-250.1374
0.8755,-0.123,-0.9526,53.8168,16.8931,-250.1374
0.8318,-0.1169,-0.9478,48.4809,17.3893,-250.1374
0.7927,-0.1155,-0.9309,43.2443,16.6107,-250.1374
0.7449,-0.1055,-0.9143,38.1145,15.374,-250.1374
0.718,-0.1001,-0.8992,33.3053,13.2595,-250.1374
0.6863,-0.0906,-0.8772,28.4809,10.9389,-250.1374
0.6433,-0.0669,-0.8704,24.1145,8.3435,-250.1374
0.625,-0.0461,-0.8604,20.1756,5.5191,-250.1374
0.6111,-0.0303,-0.8501,16.6183,2.1985,-250.1374
0.5854,-0.0066,-0.834,13.3435,-1.1374,-250.1374
0.5713,0.0095,-0.8081,10.5344,-5.3359,-250.1374
0.5474,0.0286,-0.7847,7.8626,-11.0153,-250.1374
0.5386,0.0527,-0.7537,4.9008,-17.5649,-250.1374
0.5308,0.0679,-0.7295,2.2519,-25.1374,-250.1374
0.5149,0.0908,-0.7002,-0.3435,-33.5344,-250.1374
0.5251,0.105,-0.6812,-2.4809,-42.4504,-250.1374
0.5195,0.1152,-0.6694,-4.7405,-51.3969,-250.1374
0.5244,0.1333,-0.666,-6.9695,-62.1985,-250.1374
0.5374,0.1562,-0.6697,-9.145,-71.4122,-250.1374
0.5383,0.1716,-0.679,-10.9084,-81.0916,-250.1374
0.5505,0.1914,-0.6882,-12.7176,-90.6718,-250.1374
0.5652,0.2168,-0.6958,-14.7863,-99.5038,-249.8779
0.5708,0.2273,-0.7078,-16.8473,-108.6183,-248.6794
0.582,0.2385,-0.7119,-19.145,-118.6489,-247.7786
0.585,0.2378,-0.7251,-21.9771,-127.6031,-247.2748
0.5872,0.24,-0.7273,-24.8779,-136.5038,-247.5954
0.5869,0.2454,-0.7419,-28.2214,-145.2748,-248.4122
0.5837,0.2495,-0.749,-32.2214,-153.4046,-248.5954
0.5771,0.2498,-0.7517,-36.1298,-161.0534,-249.374
0.5691,0.2573,-0.7644,-39.9542,-168.7405,-250.1374
0.5588,0.2725,-0.7542,-44.4275,-176.4122,-250.1374
0.5491,0.2834,-0.7498,-48.6641,-184.0076,-250.1374
0.542,0.2932,-0.7419,-52.9542,-191.5802,-250.1374
0.543,0.3052,-0.7388,-56.8168,-199.0382,-250.1374
0.5334,0.3225,-0.7251,-60.9008,-206.5191,-250.1374
0.5366,0.3403,-0.7197,-64.7099,-213.3435,-250.1374
0.5415,0.3621,-0.7231,-68.0763,-219.8473,-250.1374
0.5554,0.3757,-0.7427,-71.0687,-225.0534,-249.1832
0.5566,0.3879,-0.7556,-73.771,-229.1832,-247.5114
0.5732,0.386,-0.7795,-76.6565,-232.8931,-245.5725
0.5806,0.3799,-0.803,-79.0305,-235.3282,-243.4122
0.5886,0.3696,-0.8215,-80.8931,-236.7023,-241.5343
0.5906,0.3545,-0.8372,-83.3588,-237.9237,-239.3053
0.606,0.3315,-0.8574,-85.7786,-238.2977,-237.2366
0.6062,0.3015,-0.877,-88.374,-238.2137,-235.5649
0.6099,0.2678,-0.906,-91.0687,-237.9771,-233.1908
0.6179,0.2351,-0.9307,-93.9466,-237.3282,-231.5267
0.6169,0.2087,-0.9448,-97.084,-236.7176,-229.2824
0.6213,0.1909,-0.9475,-100.4809,-236.3206,-227.1069
0.6296,0.1863,-0.9619,-104.1527,-236.2672,-225.2137
0.6392,0.1709,-0.9785,-108.3282,-236.313,-222.9771
0.6406,0.1624,-0.9727,-112.2595,-236.5191,-220.6183
0.6448,0.1604,-0.9749,-116.3435,-236.7099,-218.6031
0.6592,0.1641,-0.9719,-120.6107,-236.6947,-216.4733
0.6572,0.1753,-0.9612,-124.626,-236.626,-214.7405
0.6592,0.1943,-0.9705,-129.3359,-236.4198,-213.1374
0.6592,0.2043,-0.9609,-133.8626,-235.6947,-211.626
0.6553,0.218,-0.9585,-137.9847,-234.3664,-211.0305
0.6548,0.2139,-0.9363,-141.7023,-233.3664,-210.7557
0.6472,0.2148,-0.9285,-145.0382,-232.145,-210.4275
0.6335,0.2156,-0.9114,-148.4351,-231.2672,-210.6794
0.6189,0.2002,-0.8899,-151.3969,-230.7634,-211.3282
0.6162,0.1953,-0.8635,-154.2061,-231.5954,-211.9084
0.5977,0.1826,-0.8223,-156.6641,-232.855,-212.8626
0.5835,0.1907,-0.801,-158.4657,-234.7634,-213.9389
0.5642,0.1768,-0.7786,-160.229,-236.9084,-214.9771
0.5334,0.1826,-0.7568,-161.3359,-239.2366,-216.3359
0.5117,0.1851,-0.7317,-161.9084,-241.5343,-217.771
0.4866,0.189,-0.7141,-162.0687,-243.0916,-219.0153
0.4624,0.2031,-0.6899,-161.5802,-244.4046,-220.5649
0.4404,0.2109,-0.6606,-160.7557,-245.6794,-221.6794
0.426,0.2212,-0.6433,-159.6183,-247.3359,-222.5954
0.4109,0.2236,-0.6318,-158.1679,-248.8626,-223.2443
0.3972,0.2307,-0.6106,-156.084,-250.1374,-223.6031
0.395,0.2402,-0.5935,-153.9084,-250.1374,-223.1374
0.3867,0.239,-0.5889,-151.3435,-250.1374,-222.458
0.3799,0.2371,-0.5964,-148.6718,-250.1374,-221.5802
0.3774,0.2375,-0.623,-146.1374,-250.1374,-220.2977
0.374,0.2383,-0.6392,-143.5191,-250.1374,-218.8015
0.3721,0.2583,-0.6772,-141.4886,-250.1374,-217.7328
0.3708,0.2671,-0.7112,-139.5649,-250.1374,-216.3053
0.3601,0.2908,-0.7515,-137.9695,-250.1374,-215.5343
0.3562,0.2993,-0.7698,-137.1145,-250.1374,-214.6794
0.3501,0.3193,-0.8101,-136.9389,-250.1374,-213.9466
0.3457,0.3391,-0.8447,-137.0992,-250.1374,-212.8015
0.3306,0.3618,-0.8955,-137.9618,-250.1374,-211.9618
0.3296,0.3948,-0.9329,-139.4504,-250.1374,-211.1374
0.3176,0.4163,-0.9561,-141.313,-250.1374,-209.8168
0.3057,0.4299,-0.9934,-143.6488,-250.1374,-208.145
0.2917,0.4429,-1.0205,-146.6794,-250.1374,-206.8473
0.2781,0.4453,-1.0247,-150.0229,-246.855,-204.9695
0.262,0.4553,-1.0488,-153.9313,-239.6107,-202.8855
0.2373,0.4551,-1.0544,-158.2977,-231.145,-200.7023
0.2151,0.4604,-1.0684,-162.8473,-222.9542,-198.3664
0.1987,0.4517,-1.0564,-167.687,-214.5954,-195.6565
0.1848,0.4346,-1.05,-172.5343,-206.6718,-192.4122
0.1638,0.4165,-1.0408,-177.8626,-199.0534,-188.9771
0.1396,0.3926,-1.051,-182.9924,-191.5191,-184.5114
0.1235,0.3801,-1.0286,-188.0153,-184.6336,-180.3664
0.1025,0.3474,-1.0076,-193.6718,-176.6031,-174.9008
0.0811,0.3108,-0.9929,-198.9618,-168.9847,-169.4886
0.0613,0.2859,-0.969,-204.4122,-161.3282,-163.8626
0.0371,0.2759,-0.9346,-209.1145,-153.8702,-157.855
0.0198,0.2932,-0.9028,-213.3053,-146.4657,-151.5954
-0.0107,0.3198,-0.8574,-216.9542,-139.1527,-144.916
-0.0215,0.3401,-0.8101,-219.7328,-132.3053,-138.1527
-0.0437,0.3501,-0.7578,-221.7863,-125.9847,-131.4198
-0.0591,0.3567,-0.7473,-222.916,-120.1908,-124.6412
-0.0781,0.3623,-0.698,-223.6947,-115.0229,-117.4657
-0.1067,0.3601,-0.6543,-223.7786,-109.7557,-109.9389
-0.1174,0.3638,-0.6216,-223.3817,-105.374,-103.0992
-0.1272,0.3584,-0.5977,-222.4962,-101.8626,-96.8855
-0.1313,0.3577,-0.5872,-221.229,-98.8626,-92.2214
-0.1382,0.3618,-0.5522,-219.4351,-94.4809,-85.1603
-0.1411,0.3611,-0.5352,-217.4046,-92.9466,-79.4733
-0.1541,0.3628,-0.4995,-215.1527,-93.8168,-73.8244
-0.1606,0.3628,-0.4668,-212.7939,-94.7023,-68.2901
-0.1677,0.3623,-0.4453,-210.229,-95.5496,-63.1603
-0.1709,0.364,-0.4207,-207.5649,-100.7863,-58.0916
-0.1799,0.3669,-0.3975,-205.1145,-104.7863,-53.4809
-0.1831,0.3743,-0.3926,-202.4198,-109.0611,-49.8779
-0.1963,0.3926,-0.3779,-200.229,-114.6031,-46.3511
-0.1995,0.4014,-0.3513,-197.4962,-119.2824,-43.3588
-0.2085,0.416,-0.3323,-195.8168,-124.916,-41.1298
-0.2078,0.4309,-0.3157,-193.9466,-129.8931,-39.4504
-0.2166,0.4451,-0.2979,-192.1145,-134.8397,-37.771
-0.2151,0.4722,-0.2742,-190.5114,-139.9008,-36.9695
-0.2048,0.4731,-0.272,-188.6107,-145.4886,-35.6794
-0.2004,0.489,-0.2468,-187.0382,-151.4275,-35.0076
-0.1948,0.4888,-0.2295,-185.4657,-157.6031,-34.3969
-0.1956,0.4944,-0.2192,-183.3512,-163.8321,-33.8931
-0.1909,0.4971,-0.22,-181.458,-170.7328,-32.855
-0.1763,0.4946,-0.2009,-179.5267,-177.5725,-32.1603
-0.1614,0.4934,-0.1941,-177.2366,-183.9924,-31.2214
-0.1489,0.498,-0.2017,-175.0,-189.9695,-30.458
-0.1338,0.5,-0.2002,-172.3359,-195.5878,-29.5344
-0.1116,0.4941,-0.2161,-169.9847,-200.2672,-28.5725
-0.1038,0.4946,-0.2283,-167.7176,-203.2595,-27.6641
-0.0876,0.5039,-0.2419,-165.1603,-205.7634,-26.4733
-0.0701,0.5024,-0.2439,-162.8092,-207.3206,-25.084
-0.051,0.5078,-0.2576,-160.7481,-208.2595,-23.6794
-0.0261,0.5085,-0.2771,-158.8626,-208.7252,-22.3053
-0.0007,0.5159,-0.2937,-156.9466,-208.7863,-20.3817
0.0225,0.5054,-0.3157,-155.3435,-208.6031,-17.8931
0.0586,0.4924,-0.3374,-154.1374,-208.5725,-15.5344
0.0693,0.4919,-0.3528,-153.1527,-207.7634,-12.8931
0.0945,0.4866,-0.3772,-152.8015,-206.4198,-9.7252
0.1167,0.4895,-0.397,-152.8397,-203.8168,-7.1298
0.1396,0.489,-0.418,-153.2443,-200.3817,-4.2214
0.1533,0.4871,-0.4387,-154.1069,-195.3588,-1.5344
0.1709,0.4841,-0.4575,-155.542,-188.8244,1.3282
0.1704,0.4958,-0.4736,-156.8855,-180.687,3.8168
0.1846,0.491,-0.4844,-158.6336,-171.7557,6.5954
0.1887,0.4998,-0.4875,-160.4657,-161.7634,9.6031
0.1843,0.5103,-0.4807,-162.3664,-151.1756,12.6412
0.1855,0.5229,-0.4663,-164.3664,-140.313,15.9084
0.1726,0.5366,-0.4507,-166.1527,-129.2366,19.1603
0.166,0.5493,-0.427,-168.2672,-117.9008,22.8397
0.1509,0.554,-0.4045,-170.2977,-107.1527,26.3817
0.1379,0.5535,-0.366,-172.0687,-97.5343,30.0687
0.1128,0.5452,-0.3445,-173.7634,-88.084,34.2672
0.0806,0.5447,-0.3047,-175.2214,-78.2901,38.1069
0.074,0.5356,-0.2944,-176.4046,-70.3053,41.8321
0.0295,0.5229,-0.2542,-177.6336,-62.3359,46.7023
-0.001,0.5083,-0.2129,-178.5496,-56.4885,51.0992
-0.0293,0.4998,-0.1704,-179.1603,-52.2901,54.8092
-0.0491,0.4929,-0.1531,-179.4809,-49.4351,58.8702
-0.0798,0.4836,-0.1316,-179.4275,-47.3893,62.3893
-0.1125,0.4875,-0.0881,-179.3969,-46.4809,66.0534
-0.1501,0.4905,-0.0496,-179.0076,-46.6718,69.4885
-0.1816,0.4861,-0.0068,-178.4351,-47.6641,72.7023
-0.2261,0.4846,0.0291,-177.458,-50.6794,75.9542
-0.2585,0.481,0.0703,-176.1374,-54.2672,79.1679
-0.2883,0.4893,0.1003,-175.2824,-59.4427,82.0534
-0.3018,0.4856,0.1218,-174.374,-65.7405,84.6107
-0.335,0.4873,0.1768,-172.9695,-73.8015,87.7939
-0.3521,0.4888,0.2117,-171.7634,-81.9466,90.687
-0.3779,0.4817,0.2505,-170.4351,-91.6336,93.8855
-0.397,0.4746,0.2849,-169.3359,-100.374,97.4198
-0.4082,0.4658,0.3022,-167.7786,-108.8321,100.7405
-0.4126,0.4619,0.3289,-166.4657,-118.4809,104.5802
-0.4275,0.4604,0.3633,-164.8931,-128.2366,108.6565
-0.4299,0.4614,0.3796,-162.6412,-138.1145,112.771
-0.4299,0.4585,0.3899,-160.5343,-147.5496,117.6336
-0.4248,0.4517,0.3909,-157.916,-156.3282,122.5191
-0.4263,0.4539,0.4031,-155.0305,-164.8397,127.5878
-0.4143,0.4541,0.4075,-151.458,-172.6641,133.4046
-0.397,0.4619,0.4058,-147.8473,-178.3893,139.1374
-0.3784,0.4612,0.4065,-143.916,-182.542,145.1298
-0.3503,0.4631,0.397,-139.7252,-185.313,151.1527
-0.3386,0.4675,0.3872,-135.3588,-186.0687,158.0687
-0.3225,0.467,0.3933,-131.2443,-185.1145,164.3588
-0.2979,0.4636,0.3875,-126.1374,-181.7405,171.7023
-0.2678,0.4529,0.3748,-121.4962,-176.6947,179.2672
-0.2437,0.4507,0.373,-116.458,-169.9847,187.1298
-0.2268,0.4431,0.3665,-111.6031,-162.1374,194.5878
-0.2048,0.4365,0.3833,-106.8321,-153.6641,202.4733
-0.1902,0.4226,0.405,-102.0229,-144.687,210.5496
-0.175,0.4133,0.4077,-97.3893,-135.3435,218.8092
-0.1692,0.4065,0.415,-92.9924,-127.1832,226.5114
-0.1492,0.4075,0.4275,-87.7481,-117.9924,235.6336
-0.1255,0.3862,0.4299,-83.3053,-109.4504,244.3282
-0.1038,0.3735,0.4453,-78.6183,-101.8244,250.1298
-0.0862,0.3521,0.4543,-73.7939,-92.8244,250.1298
-0.0635,0.3408,0.4573,-69.8321,-86.9237,250.1298
-0.0413,0.3186,0.4739,-65.9008,-79.3206,250.1298
-0.0134,0.3105,0.4714,-61.9618,-73.0763,250.1298
0.03,0.2959,0.4697,-58.4504,-67.3206,250.1298
0.0542,0.2832,0.4771,-55.0382,-62.7252,250.1298
0.1023,0.2664,0.4756,-51.4504,-58.8779,250.1298
0.1553,0.2561,0.4587,-48.4809,-55.3969,250.1298
0.2051,0.231,0.4397,-45.7023,-52.5649,250.1298
0.2825,0.2092,0.4121,-43.0611,-48.9618,250.1298
0.3379,0.196,0.3975,-40.9771,-45.5725,250.1298
0.3982,0.1941,0.3752,-39.1145,-41.9847,250.1298
0.4419,0.1936,0.3596,-37.1756,-38.7786,250.1298
0.4658,0.1982,0.3582,-35.4962,-35.9847,250.1298
0.5278,0.2029,0.3557,-33.7557,-34.1145,250.1298
0.5649,0.2075,0.3542,-32.4427,-33.4962,250.1298
0.6069,0.2026,0.3484,-31.4962,-33.9695,250.1298
0.6191,0.2056,0.3569,-30.7557,-35.7099,250.1298
0.657,0.1995,0.3618,-30.084,-38.0305,250.1298
0.6792,0.2053,0.3599,-29.7786,-40.7863,250.1298
0.7185,0.2107,0.3818,-29.7863,-44.1908,250.1298
0.7444,0.2019,0.3838,-30.1374,-48.5344,250.1298
0.761,0.2087,0.4021,-30.1374,-53.2595,250.1298
0.7734,0.2122,0.4133,-30.4046,-58.2901,250.1298
0.7876,0.2085,0.4302,-31.0229,-63.084,250.1298
0.7874,0.2136,0.4441,-30.771,-67.7176,250.1298
0.7764,0.2239,0.4695,-30.8244,-73.2519,250.1298
0.7783,0.2288,0.4932,-30.3664,-78.6718,250.1298
0.7649,0.2419,0.53,-29.8168,-84.1374,250.1298
0.7515,0.2495,0.5557,-28.8092,-89.374,250.1298
0.7283,0.2671,0.5986,-27.2519,-92.9389,250.1298
0.7195,0.2881,0.6182,-25.229,-96.9847,250.1298
0.6936,0.2917,0.6506,-22.7099,-102.3359,250.1298
0.6558,0.3074,0.6829,-19.5267,-106.0611,250.1298
0.6426,0.3213,0.6995,-16.1527,-109.9771,250.1298
0.6157,0.3406,0.7427,-12.4809,-113.3435,250.1298
0.5723,0.3364,0.7742,-8.5954,-117.3817,250.1298
0.5559,0.3435,0.7959,-4.5344,-120.3817,250.1298
0.5376,0.3191,0.8003,-0.313,-121.7252,250.1298
0.4893,0.3062,0.8271,4.9542,-123.5343,250.1298
0.4629,0.293,0.8374,11.0305,-123.8168,250.1298
0.4563,0.2788,0.8494,17.4886,-123.0229,250.1298
0.4355,0.2722,0.8745,24.2748,-122.855,250.1298
0.4221,0.262,0.8867,31.9924,-121.6031,250.1298
0.4128,0.2393,0.9004,40.0992,-120.0611,250.1298
0.4038,0.22,0.9197,48.5649,-118.5267,250.1298
0.4053,0.1887,0.9182,57.3893,-116.6183,250.1298
0.4155,0.1553,0.9177,66.3817,-113.6031,250.1298
0.4348,0.1248,0.9036,75.5115,-110.2443,250.1298
0.4644,0.0854,0.8848,84.9237,-106.2672,250.1298
0.4802,0.061,0.8743,93.8015,-101.8168,250.1298
0.509,0.0242,0.8467,104.313,-96.1527,250.1298
0.5525,-0.0168,0.8147,114.0153,-93.6947,250.1298
0.604,-0.0762,0.7859,124.3664,-87.7328,250.1298
0.6587,-0.1245,0.7397,132.7557,-84.3435,250.1298
0.7283,-0.1606,0.7065,142.2137,-81.1221,250.1298
0.8054,-0.198,0.6509,151.0534,-78.4962,250.1298
0.8894,-0.2295,0.6045,159.2748,-75.3435,250.1298
0.9846,-0.2593,0.5422,167.5954,-71.7328,250.1298
1.0437,-0.26,0.4856,174.8244,-67.4122,250.1298
1.1438,-0.2744,0.4373,181.6183,-61.5878,250.1298
1.2502,-0.2864,0.3657,187.7405,-55.1985,250.1298
1.3452,-0.2805,0.3193,193.0458,-47.7634,250.1298
1.4387,-0.2915,0.2737,197.5725,-40.0305,250.1298
1.5256,-0.2903,0.2324,200.9771,-32.9618,250.1298
1.5891,-0.292,0.1868,203.687,-26.2824,250.1298
1.6636,-0.2883,0.1436,205.8168,-18.9771,250.1298
1.6953,-0.291,0.1184,207.1679,-11.9389,250.1298
1.7988,-0.2603,0.0789,207.5267,-3.1832,250.1298
1.864,-0.2434,0.0603,206.8244,4.7939,250.1298
1.8989,-0.197,0.0566,205.2595,11.7481,250.1298
1.9392,-0.1514,0.0447,203.6031,17.0305,250.1298
1.9817,-0.1121,0.0442,201.1069,21.3282,250.1298
1.9941,-0.0884,0.0374,198.1527,24.7786,250.1298
1.9999,-0.0618,0.0669,195.1603,27.0305,250.1298
1.9999,-0.0232,0.0583,192.1374,29.7176,250.1298
1.9999,-0.01,0.0518,188.855,32.5038,250.1298
1.9999,0.0129,0.0762,185.8702,33.084,250.1298
1.9999,0.0232,0.0898,182.5038,33.5038,250.1298
1.9875,0.0457,0.0986,179.1985,33.4656,250.1298
1.9583,0.0525,0.1113,176.145,32.5954,245.4886
1.9363,0.0781,0.1042,173.2443,31.6489,234.626
1.9216,0.0852,0.1072,171.0,30.7099,225.084
1.877,0.0977,0.137,168.3817,28.542,215.0458
1.8386,0.1123,0.1562,166.3282,25.8473,206.2137
1.791,0.1125,0.175,164.9313,23.0382,198.1603
1.7422,0.1099,0.2053,163.9542,19.916,190.0534
1.6899,0.0991,0.2246,163.3282,16.5191,183.2519
1.6414,0.0984,0.2493,163.4198,13.1756,177.626
1.5923,0.0857,0.2556,163.7863,9.5496,172.5573
1.5571,0.0664,0.2715,164.9771,6.0382,168.8702
1.54,0.0476,0.2795,166.2977,2.9847,166.2366
1.5029,0.0291,0.2791,168.3664,0.145,164.4427
1.4871,0.0117,0.2563,170.916,-1.9389,163.8702
1.4883,-0.0054,0.2458,174.2214,-3.6489,164.6718
1.4792,-0.0256,0.2063,177.4886,-3.8855,166.2977
1.4893,-0.0308,0.1636,181.229,-2.7481,168.5878
1.5039,-0.0364,0.1399,184.855,0.0611,171.1679
1.5293,-0.0459,0.0947,188.313,3.2901,174.1298
1.5393,-0.0496,0.0837,191.6565,7.1527,177.0763
1.5703,-0.0627,0.051,194.6488,11.4962,179.855
1.6052,-0.0686,0.0232,197.6183,16.313,182.3512
1.6455,-0.0691,-0.0127,200.229,20.9542,183.9084
1.6919,-0.0679,-0.0532,202.5878,25.4427,185.2214
1.7307,-0.063,-0.0999,204.8702,29.6565,185.7863
1.7786,-0.0645,-0.1445,206.8702,34.3206,185.7023
1.8301,-0.0583,-0.1902,208.3893,38.7634,184.7939
1.8518,-0.0491,-0.2139,209.5191,43.7023,183.1908
1.8931,-0.0398,-0.2534,210.2901,48.0687,180.7328
1.9353,-0.0422,-0.282,210.3969,52.7863,177.1221
1.9702,-0.0364,-0.3186,210.1069,57.1603,172.9847
1.9999,-0.0266,-0.3542,208.9771,60.9389,168.0153
1.9999,-0.0151,-0.3799,206.9313,64.2595,162.3206
1.9999,-0.0076,-0.4055,204.9389,66.3206,155.8855
1.9999,0.0024,-0.4233,202.0763,67.8244,148.7328
1.9999,0.0066,-0.4431,198.7481,68.5649,141.1908
1.9999,0.0059,-0.4526,195.1985,68.4962,133.4427
1.9999,0.0137,-0.457,191.0611,67.4198,125.0229
1.9999,0.0256,-0.4678,186.3206,65.2061,116.3588
1.9999,0.0469,-0.4893,181.3969,63.1374,107.5267
1.9999,0.0669,-0.4919,176.0916,60.3435,98.4275
1.9999,0.0889,-0.5005,170.6336,56.8626,89.2595
1.9999,0.0999,-0.5154,163.4962,52.2519,77.5038
1.9999,0.1123,-0.5164,156.9008,47.6107,67.1374
1.9999,0.123,-0.5366,150.1527,42.9618,56.7863
1.9883,0.1396,-0.5571,143.5267,38.8702,47.3435
1.9536,0.1421,-0.5637,136.7634,35.0076,38.6718
1.9219,0.1504,-0.5759,130.3817,32.0916,30.9847
1.8818,0.1648,-0.5811,124.2901,29.3053,23.9695
1.8586,0.1675,-0.5898,117.1374,27.2595,17.7176
1.8174,0.1768,-0.5854,112.7786,25.8779,11.9847
1.7769,0.1829,-0.5918,106.2443,25.2595,6.9847
1.7422,0.1865,-0.5996,100.084,25.5573,2.9695
1.6953,0.1975,-0.5859,94.7252,26.2901,-0.2595
1.6821,0.1934,-0.5845,89.542,27.4122,-2.7481
1.6431,0.198,-0.5791,84.5343,29.4046,-5.0916
1.6057,0.2046,-0.5696,79.6794,31.4351,-6.687
1.5732,0.1958,-0.5544,75.458,33.7176,-7.4275
1.5376,0.1941,-0.5417,71.5267,36.4046,-8.1298
1.5039,0.1921,-0.5208,67.6107,39.0763,-8.3435
1.4663,0.1931,-0.5042,64.1832,41.7176,-8.2137
1.4355,0.1914,-0.4922,60.8244,44.5802,-7.6718
1.4089,0.1831,-0.4683,57.8855,47.4351,-7.0687
1.3906,0.1853,-0.46,55.4122,49.9771,-6.2519
1.3672,0.1887,-0.4231,52.9084,52.4046,-5.2061
1.3401,0.1829,-0.4043,51.0,54.4656,-4.1985
1.3152,0.1775,-0.3733,49.313,56.1679,-3.1603
1.2883,0.1765,-0.345,47.5115,57.0916,-2.1298
1.2693,0.1658,-0.3162,46.458,57.7939,-0.7023
1.2441,0.1597,-0.3049,45.3664,58.3435,0.7023
1.2163,0.1494,-0.2922,44.542,58.0229,1.8626
1.2124,0.1379,-0.2737,43.8855,57.771,3.1603
1.2002,0.1208,-0.2732,43.4885,57.4351,4.7557
1.1848,0.1077,-0.2522,43.1221,56.2137,6.7481
1.1687,0.1003,-0.248,43.1374,55.2519,8.8168
1.1606,0.0896,-0.2405,43.3435,53.9313,11.0076
1.1558,0.0767,-0.2251,44.0076,51.8626,13.0305
1.1509,0.0659,-0.2256,44.5954,49.5573,15.3588
1.1479,0.0557,-0.2148,45.458,47.3053,18.0
1.1567,0.0532,-0.2163,46.8244,44.4656,20.0763
1.1616,0.0417,-0.2249,47.6565,41.542,22.2214
1.1675,0.0417,-0.2229,49.0611,38.6412,24.1756
1.1731,0.0217,-0.2295,50.2672,35.771,25.9237
1.1882,0.0151,-0.2346,51.3206,32.4427,27.0763
1.1985,0.0093,-0.2244,52.313,28.9237,28.0076
1.2109,0.0085,-0.2256,53.3969,25.4886,28.6336
1.2336,0.0024,-0.2295,54.2901,22.0916,29.0382
1.2363,0.0044,-0.2339,54.8397,19.0534,28.8779
1.2515,0.0017,-0.2449,55.5267,16.0,28.8168
1.2729,0.0076,-0.2485,55.9618,13.3664,27.916
1.2876,0.011,-0.2446,56.1527,11.0458,27.0458
1.2981,0.009,-0.2571,56.4427,8.8779,25.4275
1.3198,0.0115,-0.2678,56.3893,6.8931,23.7939
1.3362,0.03,-0.2698,56.2443,4.916,21.9008
1.3428,0.0205,-0.2747,56.0382,3.0,19.7252
1.344,0.0222,-0.2742,55.7099,0.9847,17.3435
1.3611,0.0303,-0.2856,55.1832,-1.6565,13.9847
1.3596,0.0273,-0.2944,54.5344,-3.1221,11.2595
1.3733,0.0391,-0.3057,54.0916,-4.9008,8.2137
1.375,0.0464,-0.321,53.1145,-5.5802,5.1221
1.3723,0.0476,-0.3174,52.4427,-6.7634,2.3359
1.3701,0.052,-0.312,51.4427,-7.3206,-0.9237
1.3691,0.0603,-0.3423,50.2214,-6.8931,-3.7099
1.3667,0.0657,-0.3462,49.0763,-6.4198,-6.229
1.3574,0.0693,-0.354,47.916,-5.6718,-8.8321
1.3552,0.0774,-0.3684,46.7557,-4.2977,-11.3588
1.3457,0.0815,-0.3804,45.2366,-2.855,-13.5725
1.3384,0.0811,-0.3831,44.0153,-0.7176,-15.4504
1.3289,0.0901,-0.3818,42.8473,1.1756,-17.0076
1.3218,0.0925,-0.3955,41.0229,3.3282,-18.5573
1.3083,0.0972,-0.4006,39.6641,6.0458,-19.8321
1.2834,0.1064,-0.3931,38.1832,8.1298,-21.2672
1.2668,0.1138,-0.3909,36.5573,10.3969,-22.084
1.2546,0.1172,-0.4006,34.7176,12.8244,-23.0
1.2361,0.1108,-0.3972,33.0687,14.9466,-23.7786
1.2246,0.1147,-0.3928,31.1908,16.8473,-24.1756
1.2061,0.1165,-0.3806,29.771,18.2366,-24.7252
1.1895,0.1169,-0.3784,27.6031,20.0305,-25.3817
1.1736,0.1191,-0.3613,25.9542,21.3435,-25.4809
1.1509,0.1145,-0.3572,24.0153,22.1985,-25.5878
1.1289,0.1123,-0.3467,22.6336,22.6489,-25.7252
1.1116,0.1118,-0.3276,21.1069,23.1298,-25.8626
1.0908,0.1099,-0.3218,19.7099,23.1756,-25.8397
1.0657,0.1064,-0.2981,18.6412,22.8168,-25.9771
1.0505,0.1121,-0.3015,17.9542,22.626,-25.8168
1.0278,0.1042,-0.2891,17.0992,21.8702,-25.4962
1.0149,0.1008,-0.2776,16.458,20.8779,-25.1756
0.9863,0.0947,-0.2595,15.9313,19.7176,-24.626
0.9634,0.1035,-0.2627,15.542,18.1603,-23.5878
0.9399,0.0969,-0.2578,15.229,15.9389,-22.8168
0.9258,0.1047,-0.238,14.8397,13.2366,-21.8321
0.9199,0.1082,-0.2317,14.1145,10.7863,-20.3053
0.8931,0.1101,-0.2195,13.7405,7.9313,-19.0076
0.8958,0.1084,-0.2302,13.4809,4.7481,-17.1832
0.9001,0.1206,-0.2268,13.2443,2.5344,-15.3206
0.8809,0.0959,-0.2129,12.8626,-0.687,-13.542
0.8743,0.0962,-0.1963,12.313,-4.6718,-11.9847
0.8953,0.1145,-0.2073,12.0076,-6.3969,-9.9237
0.8872,0.116,-0.2187,11.2977,-6.9084,-7.2214
0.8833,0.1235,-0.2117,10.6489,-8.3359,-5.0916
0.8899,0.1272,-0.2058,10.2595,-9.5878,-2.8473
0.8899,0.1289,-0.1978,9.9924,-11.1527,-1.145
0.8967,0.1272,-0.1855,9.5496,-13.1069,0.771
0.9065,0.1213,-0.1877,9.1374,-14.4046,1.626
0.915,0.1226,-0.1724,8.9313,-15.8473,2.1756
0.9304,0.1223,-0.1663,8.7939,-17.7252,3.0992
0.9417,0.1335,-0.1638,8.5954,-19.0916,3.4351
0.9612,0.1296,-0.1572,8.4656,-20.5496,3.1145
0.967,0.1362,-0.1602,8.3588,-21.4886,3.0229
0.9653,0.1387,-0.1548,8.0611,-22.3359,2.9466
0.9924,0.135,-0.1545,8.084,-23.3053,2.5878
1.0129,0.1318,-0.1511,7.8626,-23.4427,2.2824
1.0264,0.1316,-0.1462,7.9008,-23.1221,2.2366
1.0288,0.1279,-0.1487,8.0305,-22.4733,2.0382
1.0432,0.1296,-0.1553,8.145,-21.3282,1.8702
1.0615,0.1292,-0.1643,8.0763,-19.2595,1.916
1.0789,0.1287,-0.1721,8.2443,-16.8779,2.0
1.0938,0.1243,-0.1799,8.4885,-14.1374,1.8626
1.1104,0.1252,-0.1797,8.5573,-10.458,1.4809
1.1113,0.135,-0.1887,8.6947,-6.7252,1.2595
1.1174,0.125,-0.1917,8.8015,-2.9008,1.1603
1.1262,0.1274,-0.1968,8.8855,1.1679,0.9466
1.1287,0.1318,-0.1982,9.0992,5.229,0.4733
1.1438,0.1316,-0.1992,8.8702,9.0992,-0.0611
1.1367,0.1252,-0.1982,8.7939,13.1221,-0.4733
1.1392,0.1313,-0.1824,8.8702,17.0534,-1.2901
1.1394,0.1265,-0.1877,8.5878,20.771,-2.0305
1.1353,0.1331,-0.187,8.2366,24.1985,-2.6336
1.1279,0.1392,-0.1846,7.9618,26.7939,-3.8244
1.1252,0.1333,-0.1829,7.5649,29.6183,-4.626
1.1196,0.1357,-0.166,6.9695,31.7252,-5.7328
1.1006,0.1355,-0.156,6.1603,33.2901,-6.6794
1.0896,0.1316,-0.158,5.6794,34.313,-7.6107
1.0691,0.1333,-0.1426,5.2443,34.687,-8.6947
1.0486,0.1299,-0.1399,4.4351,34.1298,-9.3053
1.0381,0.1304,-0.1157,3.7634,33.2443,-10.3206
1.0105,0.1311,-0.114,3.5878,32.1298,-10.7557
1.0076,0.1279,-0.1099,3.0458,30.1603,-11.1298
0.991,0.1257,-0.1052,2.5191,28.229,-11.4885
0.9751,0.1218,-0.095,2.3893,25.9542,-12.0305
0.9575,0.1196,-0.0906,2.3053,23.2137,-12.2748
0.9355,0.1162,-0.0872,1.9466,20.4504,-11.7634
0.9189,0.1155,-0.0747,1.8779,17.0458,-11.5954
0.9133,0.1152,-0.0718,1.687,14.2748,-11.2061
0.8984,0.1223,-0.0674,1.7328,10.9771,-10.5344
0.8867,0.1318,-0.0537,1.6489,7.3359,-9.6031
0.8755,0.1309,-0.0544,1.5954,3.7405,-8.7863
0.8713,0.137,-0.0544,1.5878,0.2061,-7.8168
0.8696,0.1428,-0.0515,1.6183,-3.2519,-6.2061
0.8611,0.145,-0.0515,1.7863,-6.8015,-5.1832
0.8628,0.1523,-0.0413,2.2137,-9.9237,-3.8015
0.8716,0.1511,-0.0396,2.3893,-13.3053,-2.1374
0.8689,0.1509,-0.0491,2.5267,-16.3664,-0.626
0.8755,0.1541,-0.0491,3.1603,-19.1985,1.145
0.8848,0.1553,-0.0498,3.3359,-21.2748,2.5267
0.8958,0.1562,-0.0508,3.8092,-23.0305,3.9237
0.9131,0.157,-0.0667,3.9542,-24.5954,5.2901
0.9265,0.1543,-0.0684,4.1832,-25.3817,6.7634
0.9443,0.1536,-0.062,4.7176,-26.2443,7.5954
0.9497,0.1555,-0.0657,5.2977,-26.4427,8.3893
0.9739,0.1536,-0.072,5.4733,-26.4656,9.3893
0.9866,0.1562,-0.0767,5.7863,-26.2901,9.8015
0.989,0.158,-0.0815,5.8168,-26.229,9.8855
1.0117,0.1624,-0.0764,6.0687,-25.7176,10.0687
1.0273,0.1553,-0.0908,6.0534,-25.3893,10.1679
1.0332,0.1611,-0.0881,6.1908,-24.7328,9.7786
1.0435,0.1582,-0.0957,5.9771,-23.8168,9.8702
1.0564,0.1567,-0.0952,6.0076,-22.9847,9.3053
1.0664,0.1565,-0.1033,6.1069,-21.8397,8.8473
1.074,0.1575,-0.1028,5.8168,-20.4733,8.1069
1.082,0.1582,-0.1216,5.8168,-19.7328,7.6947
1.0957,0.1599,-0.1245,5.5496,-18.2366,6.8244
1.0967,0.1558,-0.123,5.3435,-16.9618,6.0534
1.1035,0.1511,-0.1262,5.3588,-15.6794,5.1908
1.1018,0.1462,-0.1277,4.8779,-14.6565,4.1603
1.0979,0.1516,-0.134,4.4809,-13.3588,2.9695
1.1013,0.1602,-0.124,4.229,-12.7634,1.8397
1.0916,0.1523,-0.1345,3.8168,-11.771,0.9313
1.0962,0.1555,-0.1279,3.4962,-11.2901,-0.0992
1.0945,0.1562,-0.1233,3.2443,-10.687,-1.4275
1.0918,0.1604,-0.1194,2.8473,-10.1832,-2.1908
1.0859,0.1543,-0.1223,2.5725,-9.9618,-3.3435
1.0864,0.1553,-0.1326,2.1756,-9.771,-4.084
1.0781,0.1572,-0.1262,1.8321,-9.4733,-4.9924
1.0728,0.1555,-0.136,1.5649,-9.3817,-5.6794
1.0608,0.1514,-0.1467,1.2061,-9.1145,-6.4351
1.0598,0.1594,-0.1443,0.9389,-8.9313,-6.9237
1.0469,0.1594,-0.1438,0.6336,-9.0687,-7.6336
1.04,0.1648,-0.1252,0.458,-9.0992,-7.6947
1.0322,0.1665,-0.1306,0.2977,-9.0763,-8.1603
1.0242,0.1667,-0.1343,-0.2061,-9.2748,-8.1374
1.0127,0.1689,-0.1387,-0.1298,-9.1985,-8.2672
0.9995,0.1675,-0.1409,-0.2595,-9.7023,-8.2519
0.9954,0.1611,-0.1421,-0.4656,-9.9618,-8.084
0.9854,0.1631,-0.1362,-0.5954,-10.2214,-7.6947
0.9817,0.168,-0.1431,-0.8092,-10.8321,-7.3511
0.9744,0.167,-0.1428,-0.9084,-11.3359,-6.5878
0.9658,0.1624,-0.1516,-1.0763,-11.7176,-6.0382
0.959,0.165,-0.1519,-1.2672,-12.1374,-5.2137
0.9604,0.1655,-0.1472,-1.3817,-12.5267,-4.1069
0.9556,0.1643,-0.1458,-1.6183,-13.0458,-3.2672
0.949,0.1663,-0.1333,-1.9466,-13.313,-2.4198
0.9534,0.1606,-0.1387,-2.2214,-13.6107,-0.8397
0.9541,0.1653,-0.1392,-2.6947,-13.7786,0.2672
0.9531,0.1619,-0.1382,-2.7786,-14.0992,1.4504
0.9512,0.1621,-0.1428,-3.0076,-14.5649,2.3206
0.9602,0.1604,-0.1392,-2.9389,-14.7328,3.313
0.9631,0.1562,-0.1365,-2.9389,-14.8473,4.2443
0.9739,0.1526,-0.1479,-3.1527,-14.542,5.1221
0.9819,0.1521,-0.1484,-3.2977,-13.9847,6.374
0.9915,0.1462,-0.1448,-3.5802,-13.4122,6.9618
1.0012,0.1455,-0.1492,-3.6718,-12.542,7.771
1.0139,0.146,-0.1528,-3.7634,-11.4962,8.5344
1.0298,0.1431,-0.1614,-4.2901,-10.2595,9.1985
1.0364,0.1438,-0.1646,-4.4275,-8.7939,9.5496
1.0425,0.1375,-0.1707,-5.0153,-7.3969,10.2214
1.054,0.136,-0.1653,-4.9466,-5.8015,10.5496
1.0652,0.1428,-0.1611,-5.542,-4.3359,10.6183
1.0762,0.137,-0.1597,-5.7634,-2.7252,10.6107
1.0811,0.1406,-0.1543,-6.3435,-0.8855,10.6794
1.0916,0.1387,-0.1409,-6.9771,0.5115,10.3206
1.0955,0.1445,-0.1428,-7.4733,1.6183,9.7405
1.1047,0.1377,-0.1338,-7.8855,2.4504,9.0
1.1055,0.1323,-0.1257,-8.3206,3.2748,8.1298
1.1052,0.1377,-0.1228,-8.6489,3.6183,7.3359
1.1035,0.1304,-0.1265,-9.1298,3.6336,6.5725
1.1047,0.127,-0.1167,-9.5573,3.4046,5.313
