ax,ay,az,gx,gy,gz
1.0415,-0.2739,0.4502,101.542,-70.9924,96.3969
1.0557,-0.2822,0.4424,108.0611,-70.855,97.458
1.0557,-0.3037,0.4314,114.5649,-70.8015,99.1985
1.0791,-0.3333,0.4365,119.2443,-70.7863,99.9924
1.0742,-0.3572,0.4299,125.5191,-70.6107,100.9618
1.0847,-0.3804,0.4236,132.3512,-70.5267,102.5267
1.0979,-0.3855,0.4243,138.1221,-70.4885,103.3206
1.1086,-0.3953,0.4331,143.5802,-70.3359,103.9313
1.1265,-0.4099,0.4402,149.3282,-70.3359,104.7023
1.1387,-0.4106,0.4277,154.4504,-70.0534,105.8473
1.1487,-0.4243,0.4312,160.2901,-70.1298,105.7786
1.1611,-0.4272,0.4307,165.3206,-69.8015,106.313
1.1838,-0.4426,0.4373,170.7099,-69.4351,106.229
1.1909,-0.4521,0.4265,175.8931,-69.6794,106.3511
1.2024,-0.4565,0.4382,180.9237,-69.771,105.9466
1.2139,-0.4707,0.4268,186.3512,-70.313,104.9466
1.2212,-0.48,0.4287,191.5573,-70.855,104.1298
1.2273,-0.4944,0.4358,196.6183,-71.6641,102.6489
1.2273,-0.5098,0.4385,201.5496,-72.7481,101.1756
1.2334,-0.5312,0.4404,206.6947,-74.5191,98.7481
1.2334,-0.5505,0.4436,211.9313,-77.1221,96.9466
1.2378,-0.5627,0.4453,216.7634,-80.626,94.4657
1.2388,-0.5735,0.4441,222.1069,-84.5343,92.5267
1.2512,-0.5698,0.4338,227.0916,-88.2824,89.9847
1.2522,-0.5723,0.4304,232.5191,-94.1145,87.9237
1.2654,-0.5681,0.4011,237.8702,-97.2214,85.6641
1.269,-0.5632,0.3811,242.7863,-99.9924,83.4351
1.2703,-0.5664,0.3623,248.1603,-105.2519,81.084
1.2925,-0.5664,0.334,250.1298,-108.8626,78.9008
1.3123,-0.5715,0.2986,250.1298,-112.6718,77.0076
1.3342,-0.5732,0.252,250.1298,-116.3359,74.8702
1.3708,-0.5757,0.2087,250.1298,-119.916,73.3435
1.4221,-0.5774,0.1572,250.1298,-123.3359,71.542
1.4644,-0.5752,0.1145,250.1298,-126.3588,70.1374
1.5261,-0.5708,0.064,250.1298,-128.0992,68.6489
1.551,-0.5647,0.042,250.1298,-129.1985,66.9542
1.6248,-0.55,-0.0039,250.1298,-129.1603,64.542
1.6875,-0.5542,-0.0564,250.1298,-128.9771,61.7634
1.7515,-0.5457,-0.0994,250.1298,-127.6031,58.687
1.8215,-0.5461,-0.1409,250.1298,-125.7557,54.2824
1.8811,-0.5422,-0.1682,250.1298,-124.5191,48.9466
1.9446,-0.5535,-0.1858,250.1298,-122.9237,43.1603
1.9998,-0.5693,-0.2217,250.1298,-121.7939,35.8397
1.9999,-0.5779,-0.2412,250.1298,-120.1756,28.0076
1.9999,-0.5874,-0.2744,250.1298,-117.7023,18.2672
1.9999,-0.5952,-0.3044,250.1298,-114.5191,8.5038
1.9999,-0.5901,-0.3455,250.1298,-111.145,-1.8092
1.9999,-0.595,-0.355,250.1298,-107.5878,-12.8473
1.9999,-0.5935,-0.3669,250.1298,-103.9389,-24.6641
1.9999,-0.5947,-0.377,250.1298,-100.0763,-36.6947
1.9999,-0.592,-0.384,250.1298,-96.3664,-51.9847
1.9999,-0.6025,-0.3936,250.1298,-94.4427,-65.4657
1.9999,-0.6047,-0.4124,250.1298,-91.8321,-78.2901
1.9999,-0.6145,-0.4292,250.1298,-88.4427,-91.8779
1.9999,-0.6162,-0.4656,250.1298,-87.1603,-103.771
1.9999,-0.6165,-0.4734,250.1298,-86.2137,-114.8779
1.9999,-0.6208,-0.4949,250.1298,-84.3206,-127.8015
1.9999,-0.6226,-0.5242,250.1298,-82.5267,-139.2748
1.9999,-0.6233,-0.554,250.1298,-80.3817,-150.8168
1.9999,-0.6274,-0.5793,250.1298,-77.8473,-161.4427
1.9999,-0.6323,-0.6104,250.1298,-75.374,-171.6107
1.9999,-0.6367,-0.6133,250.1298,-72.7405,-181.5802
1.9999,-0.635,-0.6357,250.1298,-70.1603,-190.9389
1.9999,-0.6304,-0.6458,250.1298,-67.6718,-199.8168
1.9999,-0.6218,-0.6655,250.1298,-65.2672,-208.5038
1.9999,-0.6218,-0.6724,250.1298,-62.7481,-217.0534
1.9999,-0.6133,-0.6763,250.1298,-60.8626,-225.0611
1.9999,-0.6052,-0.6802,248.5802,-58.8779,-232.8244
1.9999,-0.6106,-0.6724,245.5343,-57.2901,-240.9237
1.9999,-0.6116,-0.6663,242.0916,-56.1374,-249.0992
1.9626,-0.6162,-0.6655,239.1679,-55.5115,-250.1374
1.9258,-0.6282,-0.6497,235.5802,-56.0076,-250.1374
1.9106,-0.6328,-0.6599,232.4122,-56.6183,-250.1374
1.8645,-0.6475,-0.6377,228.8397,-58.2748,-250.1374
1.8289,-0.6611,-0.634,225.5573,-60.3359,-250.1374
1.7795,-0.6733,-0.6189,222.626,-63.3206,-250.1374
1.7388,-0.6772,-0.6116,219.7176,-66.3359,-250.1374
1.6941,-0.6812,-0.583,217.1298,-69.9389,-250.1374
1.6531,-0.6855,-0.5742,214.5573,-73.771,-250.1374
1.625,-0.6699,-0.5732,212.2748,-77.6641,-250.1374
1.5847,-0.6763,-0.5696,210.1756,-81.6489,-250.1374
1.5703,-0.679,-0.5664,208.1145,-85.6641,-250.1374
1.5417,-0.6772,-0.571,206.3588,-89.9542,-250.1374
1.5178,-0.6733,-0.5713,204.4886,-94.1298,-250.1374
1.4932,-0.6726,-0.5779,202.8702,-96.5267,-250.1374
1.4729,-0.6609,-0.5896,201.1832,-100.7328,-250.1374
1.4575,-0.6416,-0.592,199.7557,-103.771,-250.1374
1.4446,-0.6301,-0.6135,198.3969,-106.3206,-250.1374
1.4417,-0.6086,-0.6179,196.8931,-108.5343,-250.1374
1.4373,-0.593,-0.6226,195.4275,-109.7252,-250.1374
1.4316,-0.5745,-0.6492,194.0229,-109.7328,-250.1374
1.4333,-0.5457,-0.6699,192.9237,-109.3206,-250.1374
1.4297,-0.5244,-0.7131,191.5573,-107.3664,-250.1374
1.4382,-0.499,-0.7415,189.6718,-104.2748,-250.1374
1.4336,-0.48,-0.7896,188.3435,-99.8855,-250.1374
1.4351,-0.4541,-0.8381,186.8244,-96.3817,-250.1374
1.4224,-0.4336,-0.8826,185.0763,-90.3817,-250.1374
1.4258,-0.4067,-0.9207,183.2748,-81.9542,-250.1374
1.4282,-0.3975,-0.9485,180.9771,-74.5115,-250.1374
1.4329,-0.3723,-0.9849,178.1832,-67.1221,-250.1374
1.4214,-0.3479,-1.0129,175.4733,-59.4198,-250.1374
1.4194,-0.3247,-1.0452,172.229,-51.6412,-250.1374
1.4045,-0.3079,-1.0762,168.8168,-44.6718,-250.1374
1.3916,-0.2769,-1.0994,164.6488,-37.8015,-250.1374
1.3752,-0.252,-1.1199,159.4657,-30.4809,-250.1374
1.3513,-0.2241,-1.1462,153.8855,-23.2595,-250.1374
1.3184,-0.1787,-1.1685,149.1374,-17.4733,-250.1374
1.2881,-0.1533,-1.1982,143.8244,-12.1145,-250.1374
1.2595,-0.1152,-1.218,138.3817,-6.9389,-250.1374
1.2168,-0.0815,-1.2341,132.5649,-2.4275,-250.1374
1.1741,-0.043,-1.2551,125.9542,1.6107,-250.1374
1.1455,-0.0198,-1.2576,120.6412,4.3893,-250.1374
1.1091,0.0122,-1.2507,113.5878,5.9466,-250.1374
1.0896,0.0232,-1.2476,105.8397,5.7252,-250.1374
1.0522,0.0562,-1.2612,98.4504,4.2672,-250.1374
1.0205,0.0789,-1.262,90.8168,1.5496,-250.1374
0.9868,0.1101,-1.2683,82.7863,-1.916,-250.1374
0.957,0.1384,-1.2681,73.6718,-5.9237,-250.1374
0.9329,0.1558,-1.2686,64.2977,-10.3511,-250.1374
0.9111,0.1738,-1.2563,54.2595,-14.8626,-250.1374
0.9048,0.1819,-1.2339,43.4656,-21.0076,-250.1374
0.887,0.1926,-1.2078,32.0382,-27.7405,-250.1374
0.8865,0.2065,-1.1755,19.9084,-35.4733,-250.1374
0.8689,0.22,-1.1487,8.7099,-42.313,-250.1374
0.8618,0.2368,-1.1353,-1.9389,-49.0382,-250.1374
0.856,0.2395,-1.1316,-12.145,-55.6565,-250.1374
0.8425,0.2319,-1.1199,-21.6031,-62.2824,-250.1374
0.842,0.2173,-1.1094,-30.229,-67.9542,-250.1374
0.8188,0.2019,-1.1084,-38.3664,-72.9771,-250.1374
0.8171,0.1931,-1.1077,-45.084,-77.229,-250.1374
0.803,0.1848,-1.1045,-51.7634,-81.0229,-250.1374
0.7786,0.1667,-1.1086,-58.0229,-83.4198,-250.1374
0.7534,0.1455,-1.0798,-63.8473,-85.8931,-250.1374
0.7236,0.1338,-1.0625,-68.8473,-88.1069,-250.1374
0.7012,0.1108,-1.0383,-73.916,-91.0916,-250.1374
0.6682,0.0933,-1.0037,-78.2901,-94.4809,-250.1374
0.6328,0.0867,-0.9626,-82.9389,-97.5115,-250.1374
0.593,0.0781,-0.9197,-87.0992,-100.2519,-250.1374
0.584,0.0759,-0.9043,-90.6565,-105.8702,-250.1374
0.5425,0.0803,-0.8689,-94.1069,-111.7405,-250.1374
0.5112,0.0837,-0.8352,-97.0305,-118.1145,-250.1374
0.4766,0.0937,-0.8071,-99.4657,-124.2748,-250.1374
0.4463,0.1118,-0.7837,-101.7023,-131.2519,-250.1374
0.4053,0.1182,-0.7405,-103.8244,-138.4427,-250.1374
0.3887,0.1333,-0.7183,-105.6718,-145.5725,-250.1374
0.3633,0.1433,-0.7012,-107.0076,-153.3435,-250.1374
0.3525,0.1504,-0.6973,-108.5115,-161.4733,-250.1374
0.3345,0.1582,-0.676,-109.687,-169.8168,-250.1374
0.3264,0.1765,-0.6448,-110.5115,-179.2672,-250.1374
0.3135,0.1853,-0.6304,-111.2748,-189.4886,-250.1374
0.3054,0.1924,-0.6184,-111.3893,-200.1603,-250.1374
0.3127,0.2087,-0.6016,-111.6107,-210.9695,-250.1374
0.3108,0.2205,-0.6084,-111.4275,-222.3588,-250.1374
0.312,0.2378,-0.6099,-111.5649,-233.2214,-250.1374
0.3108,0.2397,-0.5918,-111.4809,-243.7023,-250.1374
0.3264,0.2544,-0.5898,-111.458,-250.1374,-249.9847
0.3345,0.2476,-0.5925,-111.8168,-250.1374,-247.7176
0.364,0.252,-0.6072,-112.374,-250.1374,-245.6031
0.3884,0.2656,-0.6238,-113.3282,-250.1374,-243.8779
0.4231,0.2561,-0.6423,-114.4275,-250.1374,-242.5114
0.4734,0.2578,-0.707,-116.4046,-250.1374,-241.4351
0.4915,0.2605,-0.7275,-118.0763,-250.1374,-240.8931
0.5303,0.269,-0.7827,-119.8931,-250.1374,-240.7328
0.5613,0.2849,-0.8225,-121.7252,-250.1374,-240.2672
0.5994,0.3093,-0.8718,-123.3359,-250.1374,-239.9695
0.6389,0.2988,-0.8977,-125.4122,-250.1374,-240.1527
0.6584,0.2507,-0.9485,-127.5573,-250.1374,-240.6031
0.6963,0.2256,-0.9905,-130.5725,-250.1374,-241.7634
0.7234,0.1887,-1.0366,-134.6336,-250.1374,-242.7634
0.7241,0.1802,-1.0632,-139.1985,-250.1374,-243.8244
0.7466,0.1731,-1.1392,-144.9237,-250.1374,-245.2214
0.7522,0.1787,-1.1882,-149.5954,-250.1374,-246.3817
0.7566,0.2034,-1.2158,-154.2748,-250.1374,-247.1298
0.7571,0.2158,-1.2419,-158.9008,-250.1374,-247.8397
0.7483,0.238,-1.2664,-163.7023,-250.1374,-247.916
0.7324,0.2278,-1.2739,-168.5114,-250.1374,-247.9695
0.7168,0.2117,-1.26,-173.3969,-250.1374,-247.2595
0.686,0.2051,-1.2478,-178.9695,-250.1374,-246.5267
0.6667,0.1987,-1.2493,-184.229,-248.2748,-245.1985
0.6404,0.1895,-1.2429,-190.5267,-234.0,-242.9847
0.6045,0.1882,-1.2346,-196.4886,-220.0687,-239.9084
0.5823,0.1843,-1.2129,-202.1145,-205.7405,-236.4046
0.5374,0.1694,-1.2048,-207.7786,-190.9313,-232.3206
0.5071,0.1672,-1.1748,-213.145,-176.916,-227.5878
0.4712,0.1643,-1.1387,-217.6794,-163.1374,-222.313
0.4351,0.1724,-1.0977,-221.7328,-150.9008,-216.916
0.4229,0.1746,-1.0674,-224.7176,-140.0763,-211.5343
0.3833,0.1877,-1.0332,-227.5802,-128.5343,-205.0305
0.3347,0.198,-0.9854,-229.1603,-118.458,-199.2977
0.3118,0.2161,-0.9458,-230.1756,-109.3969,-193.6336
0.2583,0.2192,-0.916,-230.5038,-101.0229,-188.4122
0.2192,0.2219,-0.876,-230.1298,-95.8321,-183.1374
0.1841,0.2388,-0.8357,-228.9237,-90.9237,-178.0992
0.1487,0.2351,-0.8025,-226.8397,-86.7405,-173.229
0.115,0.2385,-0.7659,-224.8626,-85.6718,-167.855
0.1174,0.2258,-0.7625,-222.1527,-86.4198,-163.1603
0.0779,0.22,-0.7358,-219.3893,-89.1221,-158.4198
0.0579,0.2031,-0.7236,-216.2977,-92.9237,-154.0153
0.0393,0.2087,-0.7097,-213.2214,-96.4046,-149.7023
0.0117,0.2295,-0.6987,-210.5649,-97.0763,-146.5038
-0.0095,0.2405,-0.6748,-207.2595,-101.5573,-143.6031
-0.033,0.269,-0.6487,-204.5191,-104.2824,-141.4275
-0.0679,0.3054,-0.6177,-201.4504,-107.4962,-140.1069
-0.0693,0.3262,-0.6162,-198.7634,-111.4427,-139.6488
-0.084,0.353,-0.5767,-196.0992,-116.5878,-139.4962
-0.1147,0.3862,-0.5481,-193.8473,-122.687,-139.7786
-0.1313,0.4021,-0.5215,-191.9008,-129.626,-140.7328
-0.1458,0.3904,-0.4922,-190.1374,-137.3512,-141.2748
-0.1814,0.3752,-0.4575,-188.2061,-146.9008,-142.7939
-0.1948,0.3691,-0.4341,-186.2824,-158.3893,-144.2137
-0.166,0.3623,-0.4231,-183.5954,-170.9313,-145.771
-0.1992,0.3511,-0.4102,-182.4198,-182.8397,-147.4809
-0.2466,0.3586,-0.3281,-182.0611,-200.0763,-150.2748
-0.2014,0.3999,-0.3596,-181.2748,-213.8779,-151.4275
-0.2004,0.4578,-0.374,-180.374,-224.4962,-150.8702
-0.1833,0.4907,-0.3992,-179.4809,-232.7939,-148.8168
-0.1692,0.502,-0.426,-178.7176,-238.2061,-145.0382
-0.1643,0.5042,-0.4485,-178.0305,-241.7863,-141.0763
-0.1638,0.4753,-0.448,-177.3817,-245.6794,-136.5725
-0.1594,0.4434,-0.4468,-176.7099,-249.7252,-132.2366
-0.1533,0.4172,-0.4353,-175.8015,-250.1374,-128.1908
-0.1663,0.3887,-0.4382,-174.9924,-250.1374,-124.8168
-0.1624,0.3591,-0.4248,-173.8855,-250.1374,-122.2519
-0.1741,0.3394,-0.4204,-172.5573,-250.1374,-119.5725
-0.1658,0.3298,-0.4299,-171.2824,-250.1374,-117.2214
-0.166,0.3096,-0.4155,-169.8473,-250.1374,-114.916
-0.1643,0.3032,-0.4248,-168.313,-250.1374,-112.0916
-0.1472,0.3132,-0.4324,-166.7786,-250.1374,-108.855
-0.1316,0.3369,-0.4363,-165.5496,-250.1374,-104.4657
-0.1172,0.3879,-0.4534,-163.542,-250.1374,-99.2366
-0.084,0.4353,-0.4727,-161.8321,-250.1374,-92.1679
-0.0645,0.4668,-0.5007,-160.3588,-250.1374,-87.3359
-0.0398,0.4827,-0.5347,-158.7405,-250.1374,-79.5038
-0.022,0.4917,-0.5593,-157.1374,-249.3053,-71.3511
-0.0066,0.5081,-0.5886,-156.3282,-232.8855,-63.5573
0.0032,0.5161,-0.6128,-155.3053,-215.229,-55.2137
0.0015,0.5413,-0.6211,-154.6794,-196.4733,-47.2824
0.0056,0.5566,-0.6094,-154.3053,-177.6718,-39.1527
-0.0042,0.5681,-0.6089,-153.6565,-159.313,-31.5954
-0.02,0.5781,-0.6025,-153.2061,-142.084,-24.2366
-0.0454,0.5891,-0.5859,-152.5114,-126.4046,-16.7023
-0.0547,0.5916,-0.5842,-152.1832,-112.6947,-9.9542
-0.0847,0.5947,-0.5715,-151.3969,-101.0458,-3.6183
-0.1187,0.5911,-0.564,-150.6183,-92.7252,2.2519
-0.1548,0.5945,-0.5493,-150.0763,-84.1374,8.0687
-0.1985,0.5845,-0.5371,-149.8092,-78.6794,12.9771
-0.2354,0.5872,-0.5144,-149.4657,-75.1908,17.7252
-0.2715,0.5886,-0.5039,-149.3206,-73.5496,22.0763
-0.2971,0.5884,-0.4832,-149.5038,-73.4122,25.9313
-0.3196,0.5986,-0.4717,-150.0687,-75.4198,29.5878
-0.3523,0.5989,-0.4473,-151.0458,-78.6489,33.0611
-0.3872,0.6187,-0.4294,-152.2748,-82.9389,36.2519
-0.4114,0.624,-0.4131,-154.0992,-89.3359,39.458
-0.4324,0.6331,-0.396,-156.145,-96.9618,42.5878
-0.4526,0.6465,-0.3755,-158.5038,-103.0153,45.2977
-0.4573,0.6484,-0.3733,-161.374,-112.5878,48.2824
-0.4551,0.6514,-0.3511,-164.0916,-122.6947,51.6336
-0.4543,0.6431,-0.3408,-167.2595,-133.9847,54.7481
-0.4539,0.6362,-0.3362,-170.5267,-146.0916,58.4046
-0.4446,0.626,-0.3308,-174.0992,-158.687,61.6641
-0.4331,0.6221,-0.324,-177.4427,-171.8473,64.7786
-0.4097,0.6128,-0.3152,-180.8931,-184.8397,68.1985
-0.3806,0.5947,-0.3179,-184.1374,-197.3053,71.0076
-0.3562,0.5842,-0.321,-187.2595,-209.0229,74.0382
-0.3269,0.5625,-0.3213,-190.0458,-219.6107,76.3969
-0.2844,0.5359,-0.3184,-192.6107,-228.7176,78.6947
-0.2673,0.5266,-0.3169,-194.7939,-236.4657,80.8931
-0.2114,0.5076,-0.3291,-197.1832,-243.9847,82.7405
-0.1711,0.4895,-0.322,-198.7786,-248.8244,84.8473
-0.1299,0.4829,-0.3184,-200.0916,-250.1374,86.7023
-0.0937,0.478,-0.3164,-200.4351,-250.1374,87.7405
-0.0623,0.4578,-0.3103,-200.5725,-250.1374,89.1527
-0.0474,0.4529,-0.3064,-200.7176,-249.7863,90.3588
-0.0078,0.4353,-0.2986,-200.5114,-247.2519,91.9542
0.0298,0.4187,-0.29,-200.1603,-243.3512,93.5343
0.0457,0.4092,-0.2957,-199.7023,-238.3969,95.7176
0.0757,0.4036,-0.2913,-199.2137,-232.2137,97.8626
0.0813,0.3872,-0.2891,-198.374,-225.6107,99.9542
0.0908,0.3806,-0.2822,-197.3817,-217.7557,102.5802
0.0981,0.3816,-0.2725,-196.2824,-209.5343,105.7557
0.0962,0.3713,-0.2605,-195.2977,-200.1298,109.7099
0.085,0.3694,-0.2593,-194.2443,-191.2366,113.313
0.0715,0.365,-0.2458,-192.8473,-180.7481,117.6336
0.0559,0.3606,-0.2271,-191.8015,-171.3817,122.5038
0.0186,0.3699,-0.2009,-190.9847,-162.1756,127.4885
-0.0073,0.3728,-0.1665,-189.7328,-153.6641,133.2977
-0.0359,0.3767,-0.1299,-188.6412,-145.916,139.5191
-0.0732,0.3789,-0.1008,-187.8626,-138.8397,145.8321
-0.1023,0.3872,-0.0586,-187.0153,-132.5496,152.771
-0.1169,0.3955,-0.0493,-186.1069,-127.5878,159.5343
-0.1438,0.4014,-0.0073,-185.3664,-122.6336,167.6565
-0.1624,0.4089,0.0117,-184.6336,-118.6794,175.2977
-0.1873,0.4102,0.0359,-183.8244,-115.4657,183.1756
-0.2041,0.4136,0.0691,-182.9466,-112.7863,191.4046
-0.2234,0.4114,0.092,-182.2519,-110.145,199.5573
-0.2368,0.4077,0.1157,-181.5649,-107.7863,207.2595
-0.248,0.4058,0.1348,-180.6565,-106.0458,214.8779
-0.2585,0.3904,0.1492,-179.8092,-104.1374,222.2519
-0.2573,0.3943,0.1626,-179.0229,-103.7252,229.2824
-0.259,0.3779,0.1797,-178.145,-103.9008,236.2977
-0.2708,0.3582,0.1985,-177.2748,-105.855,242.6641
-0.2642,0.3484,0.2217,-176.5573,-108.4885,249.1756
-0.259,0.3279,0.2397,-176.0,-112.5954,250.1298
-0.2441,0.2979,0.2603,-175.3282,-117.6489,250.1298
-0.2246,0.2722,0.2893,-174.9771,-123.3969,250.1298
-0.198,0.2522,0.3088,-174.5038,-129.6794,250.1298
-0.1731,0.2444,0.3074,-173.9237,-136.8702,250.1298
-0.1367,0.2227,0.3184,-173.3969,-144.229,250.1298
-0.0979,0.2063,0.3286,-172.8092,-151.0153,250.1298
-0.0532,0.1926,0.3245,-171.8244,-157.5878,250.1298
0.0049,0.1736,0.3293,-170.5802,-163.0687,250.1298
0.0471,0.1584,0.3437,-169.1908,-167.9618,250.1298
0.1084,0.1411,0.3489,-167.2443,-172.1298,250.1298
0.1628,0.1243,0.3582,-165.0076,-175.4275,250.1298
0.1917,0.1248,0.3586,-162.687,-177.8015,250.1298
0.2493,0.1123,0.3684,-159.5038,-179.1832,250.1298
0.3059,0.1086,0.3684,-155.8092,-179.9771,250.1298
0.356,0.0989,0.3804,-152.1374,-180.2672,250.1298
0.4053,0.0916,0.3926,-148.2443,-179.5191,250.1298
0.4492,0.0891,0.4006,-143.6947,-178.5191,250.1298
0.4966,0.0864,0.4136,-138.916,-176.7405,250.1298
0.5457,0.095,0.4272,-132.7328,-173.7557,250.1298
0.5806,0.0864,0.4424,-127.229,-170.6641,250.1298
0.6145,0.0881,0.4417,-121.916,-166.4046,250.1298
0.6465,0.085,0.468,-116.9924,-162.0458,250.1298
0.6638,0.0774,0.4604,-111.4351,-157.0992,250.1298
0.6875,0.085,0.4695,-106.0229,-151.542,250.1298
0.6938,0.0718,0.4773,-100.5802,-145.7481,250.1298
0.699,0.0791,0.4761,-94.9008,-139.7481,250.1298
0.7007,0.075,0.5012,-89.1756,-133.2977,250.1298
0.6924,0.0669,0.5261,-83.3893,-127.6947,250.1298
0.6694,0.0793,0.5452,-77.8931,-121.9466,250.1298
0.6436,0.0601,0.5825,-71.9924,-116.9389,250.1298
0.6199,0.0493,0.6062,-65.8092,-112.7786,250.1298
0.5903,0.0425,0.636,-59.9695,-110.2137,250.1298
0.564,0.0242,0.6704,-53.9389,-108.8702,250.1298
0.551,0.0117,0.6726,-48.0,-108.9466,250.1298
0.5334,-0.0012,0.6831,-41.1374,-110.1145,250.1298
0.5376,-0.0227,0.6777,-34.5344,-111.7252,250.1298
0.5496,-0.0352,0.6619,-27.8168,-113.8321,250.1298
0.5566,-0.0271,0.6294,-20.9008,-115.4275,250.1298
0.6418,-0.0051,0.5298,-13.855,-114.4504,250.1298
0.6487,0.0015,0.4771,-6.3435,-112.145,250.1298
0.6624,0.0046,0.4331,0.2824,-108.9237,250.1298
0.7422,0.0154,0.3716,5.6641,-104.1679,250.1298
0.7292,0.0112,0.4031,10.5496,-98.3053,250.1298
0.7725,0.0164,0.3777,15.0,-95.2901,250.1298
0.8167,0.0227,0.3401,18.3664,-89.9924,250.1298
0.8706,0.0457,0.2927,20.6641,-81.145,250.1298
0.9199,0.0706,0.2676,22.1374,-73.5115,250.1298
0.9502,0.1096,0.2524,23.1374,-65.7176,250.1298
0.99,0.1423,0.2444,22.8244,-57.3053,250.1298
1.0144,0.1741,0.2339,21.9008,-48.4962,250.1298
1.0286,0.1943,0.2524,20.1374,-39.374,250.1298
1.0374,0.2234,0.2571,17.7023,-30.3817,250.1298
1.0435,0.2429,0.2734,15.084,-21.4733,250.1298
1.0461,0.2456,0.2871,11.855,-12.5038,250.1298
1.0381,0.252,0.3066,8.5725,-3.8092,250.1298
1.0222,0.25,0.333,5.4885,4.8015,250.1298
1.0054,0.2412,0.3611,2.4504,12.0076,250.1298
0.9766,0.2307,0.3953,0.3359,18.0076,250.1298
0.9431,0.2092,0.447,-1.4504,23.1221,250.1298
0.9207,0.2009,0.4697,-2.5954,27.2366,250.1298
0.8767,0.1831,0.5273,-2.7176,29.9771,250.1298
0.8311,0.1621,0.6035,-1.9847,30.6489,250.1298
0.7834,0.1306,0.679,-0.9008,29.1221,250.1298
0.7283,0.1123,0.7537,1.1298,25.6107,250.1298
0.6956,0.0835,0.8367,3.626,20.1374,250.1298
0.6565,0.0623,0.9065,7.084,12.8779,250.1298
0.6375,0.031,0.9756,11.1985,5.0611,250.1298
0.6362,0.021,0.9949,16.0916,-3.5802,250.1298
0.6106,-0.0022,1.0667,21.9847,-12.4275,250.1298
0.6035,-0.0354,1.136,28.2672,-21.855,250.1298
0.5979,-0.0701,1.1794,35.5878,-31.5191,250.1298
0.6152,-0.1174,1.2175,45.4122,-43.4885,250.1298
0.6301,-0.1428,1.2231,53.9084,-53.3511,250.1298
0.6819,-0.1934,1.2349,62.8397,-63.0458,250.1298
0.7344,-0.2402,1.2139,72.229,-72.2824,250.1298
0.8164,-0.2991,1.1809,82.4275,-80.2824,250.1298
0.8921,-0.3401,1.1428,92.7252,-87.0153,250.1298
0.9824,-0.3931,1.0874,103.3053,-91.8626,250.1298
1.0803,-0.4338,1.0325,113.7786,-94.8702,250.1298
1.1262,-0.46,0.9912,124.6183,-94.4657,250.1298
1.2219,-0.5142,0.9468,135.7099,-92.4504,250.1298
1.3225,-0.5532,0.887,147.0229,-88.3359,250.1298
1.4265,-0.6008,0.8245,157.687,-85.3359,250.1298
1.5283,-0.635,0.7498,169.1985,-80.7557,250.1298
1.6335,-0.6692,0.6819,179.542,-76.7481,250.1298
1.7346,-0.6799,0.5901,189.3817,-71.6489,250.1298
1.824,-0.6702,0.5088,198.8092,-65.7786,250.1298
1.9148,-0.6555,0.4287,207.4275,-59.1069,250.1298
1.9641,-0.6394,0.3855,215.2977,-51.6718,250.1298
1.9999,-0.5986,0.3315,221.687,-44.0153,250.1298
1.9999,-0.5474,0.2759,227.2748,-36.4656,250.1298
1.9999,-0.4917,0.2427,231.084,-29.4275,250.1298
1.9999,-0.4448,0.1875,233.6183,-22.229,250.1298
1.9999,-0.4036,0.137,234.7557,-14.6947,250.1298
1.9999,-0.3552,0.0884,234.3588,-6.7863,250.1298
1.9999,-0.3125,0.0522,233.3664,0.8855,248.3969
1.9999,-0.2842,0.0332,230.374,8.1527,237.5267
1.9999,-0.2437,0.0085,226.7176,15.4046,226.7176
1.9999,-0.2139,-0.0002,222.0992,21.0153,215.9008
1.9999,-0.1824,0.0022,216.7481,25.313,204.8092
1.9999,-0.1401,0.0251,210.9008,27.5191,194.0916
1.9999,-0.0996,0.0173,204.7863,28.6794,183.8397
1.9999,-0.0569,0.0422,198.855,28.8855,173.855
1.9729,-0.0127,0.0588,192.9389,27.0687,165.084
1.9407,-0.0054,0.063,187.2595,24.626,156.771
1.8782,0.0251,0.074,181.8168,21.5954,149.3435
1.8118,0.0452,0.0935,176.7481,17.5344,142.9008
1.7341,0.0613,0.1165,171.916,12.9618,137.4198
1.6616,0.0818,0.1194,167.4962,7.3664,132.1756
1.5935,0.084,0.1433,163.9313,1.4275,128.2748
1.5315,0.0874,0.1775,160.5496,-4.9695,124.9695
1.4641,0.0845,0.2017,157.9695,-11.5344,122.3588
1.4019,0.0833,0.217,155.916,-18.0153,120.9084
1.3789,0.0801,0.2256,154.0305,-24.2519,120.1221
1.3274,0.0842,0.2488,152.9695,-30.4656,119.9924
1.2751,0.0806,0.2686,152.5191,-36.3588,120.6031
1.2263,0.0776,0.2856,152.1298,-41.9924,121.7252
1.1958,0.0752,0.2883,152.542,-46.855,124.1527
1.1619,0.0696,0.2925,153.1679,-51.3511,126.9771
1.1357,0.0532,0.2976,154.229,-55.2214,130.4962
1.1279,0.0337,0.304,155.8244,-58.542,134.7405
1.1196,0.0295,0.2988,157.6794,-60.7099,138.9466
1.1189,0.001,0.3003,159.9466,-62.145,143.5496
1.1106,-0.0249,0.2905,162.1145,-62.5649,148.5802
1.1118,-0.0537,0.2834,164.6031,-62.4122,153.1298
1.1299,-0.0847,0.292,167.5496,-61.8092,157.855
1.1492,-0.1233,0.2913,171.2824,-60.5649,163.3512
1.1799,-0.1499,0.2964,174.5802,-59.6107,168.1985
1.2236,-0.1824,0.2842,178.3282,-58.0153,172.7939
1.2727,-0.2068,0.2483,182.5343,-55.8702,177.2519
1.3298,-0.2429,0.2141,187.3817,-52.9695,180.8855
1.3887,-0.2661,0.1909,192.1832,-48.5573,184.687
1.4434,-0.291,0.157,197.6183,-43.0229,187.3817
1.4758,-0.3013,0.1431,202.9008,-36.6031,189.6794
1.5308,-0.3252,0.1147,208.3435,-29.313,191.0153
1.5974,-0.3469,0.0964,213.6107,-22.3817,191.5038
1.6584,-0.3569,0.0764,218.9008,-14.8168,191.542
1.7317,-0.3728,0.0518,224.2061,-8.1832,190.9084
1.8022,-0.3889,0.0193,228.7786,-1.6031,189.626
1.8767,-0.3943,-0.022,233.8626,5.0687,187.1679
1.937,-0.3967,-0.0781,238.3282,12.3206,184.4046
1.9683,-0.3928,-0.1021,242.3359,19.855,180.7863
1.9999,-0.387,-0.1626,246.2519,29.2061,175.6947
1.9999,-0.3723,-0.2012,249.0916,37.8321,169.8168
1.9999,-0.3628,-0.2324,250.1298,46.4275,163.1603
1.9999,-0.334,-0.2502,250.1298,54.4046,155.2824
1.9999,-0.3049,-0.2593,250.1298,60.8397,146.9237
1.9999,-0.2764,-0.2844,250.1298,66.4122,137.7557
1.9999,-0.2397,-0.3005,249.9542,71.2519,127.9313
1.9999,-0.2119,-0.3242,247.3817,74.8779,118.2824
1.9999,-0.1865,-0.3413,244.145,77.229,108.3893
1.9924,-0.1584,-0.3691,240.4657,78.8321,98.8321
1.9314,-0.1274,-0.406,235.3893,79.3053,89.8015
1.8677,-0.1006,-0.4202,230.1527,78.458,81.084
1.7971,-0.0757,-0.4487,224.2595,76.3359,73.3282
1.7261,-0.054,-0.4612,217.5573,72.8702,66.1145
1.6511,-0.0261,-0.4807,210.3969,67.4046,59.4122
1.5803,-0.0032,-0.4854,202.9847,60.8397,53.6641
1.5457,0.0071,-0.4866,195.0992,52.4733,48.0229
1.4775,0.033,-0.4961,186.7023,43.3969,43.5115
1.4202,0.0581,-0.5037,178.4962,33.1527,39.5191
1.3564,0.0818,-0.5115,169.7939,22.7786,35.9618
1.2976,0.0955,-0.5232,160.3817,11.1527,32.9847
1.2563,0.1194,-0.5308,151.7328,0.4275,30.8855
1.2178,0.1309,-0.5342,142.9084,-9.9618,29.4504
1.1785,0.1492,-0.5415,134.3435,-19.3969,28.6489
1.1633,0.1487,-0.5522,126.4427,-28.084,28.313
1.145,0.1482,-0.5481,116.6412,-37.0534,28.229
1.127,0.1497,-0.5586,110.313,-44.1374,29.0229
1.1079,0.1506,-0.5576,102.5038,-50.1908,30.2977
1.0984,0.1404,-0.5491,95.3206,-55.0611,31.3588
1.0916,0.135,-0.5442,88.9237,-58.7099,32.8244
1.0881,0.1133,-0.5359,83.1221,-61.4885,34.5267
1.0879,0.1016,-0.5132,78.1221,-63.6718,36.4427
1.0903,0.0889,-0.4985,73.9084,-64.8931,38.3664
1.0928,0.073,-0.4573,69.8168,-65.6641,40.2748
1.095,0.052,-0.4331,66.5267,-65.9771,42.5649
1.1086,0.0315,-0.3999,64.1527,-65.8702,44.8092
1.1228,0.0098,-0.3501,62.2137,-65.6794,46.7939
1.1389,-0.0103,-0.3232,60.8092,-64.7176,49.2824
1.1702,-0.0308,-0.2861,60.0,-62.5344,51.8473
1.1909,-0.0603,-0.2612,59.9847,-60.229,54.1679
1.2236,-0.0906,-0.2307,60.5038,-57.2137,56.1145
1.2595,-0.1113,-0.2158,62.0611,-53.5191,57.5802
1.2971,-0.1382,-0.1956,64.0229,-49.9618,58.8626
1.3391,-0.1716,-0.178,66.4962,-45.6947,60.2061
1.3635,-0.1831,-0.1812,69.3511,-41.6031,60.8397
1.4192,-0.2031,-0.188,73.229,-36.4351,61.2672
1.4653,-0.2214,-0.1931,77.3359,-31.2824,61.2824
1.519,-0.2383,-0.2131,81.2443,-25.5649,60.9084
1.5645,-0.2449,-0.2388,85.3893,-19.1832,59.6947
1.6184,-0.2537,-0.2588,89.145,-12.0687,57.7786
1.6545,-0.2449,-0.282,92.8931,-4.7023,55.2519
1.689,-0.2402,-0.2927,95.7176,2.7786,52.0229
1.7156,-0.2346,-0.3069,97.916,10.084,47.8779
1.7292,-0.228,-0.3035,99.8092,16.8855,43.1527
1.7444,-0.2056,-0.3181,100.8931,23.0687,37.7023
1.751,-0.1973,-0.3176,101.1756,28.7557,31.8855
1.7446,-0.1829,-0.3237,100.7405,33.1985,25.8244
1.7405,-0.1755,-0.3403,100.1221,36.9466,18.8473
1.7158,-0.1677,-0.3374,98.9924,40.1298,12.2214
1.6968,-0.157,-0.3376,97.687,42.5649,5.3588
1.6555,-0.1365,-0.3386,95.5725,44.2443,-1.9618
1.6323,-0.1294,-0.3418,93.7863,45.0305,-7.855
1.595,-0.125,-0.3499,91.6641,45.3893,-14.1374
1.5417,-0.1062,-0.3464,89.4198,45.0305,-20.0992
1.4846,-0.0962,-0.3484,87.4275,44.5496,-25.0763
1.4241,-0.0845,-0.3665,85.4122,43.6947,-29.4122
1.3547,-0.0869,-0.3762,83.5343,42.3969,-33.1908
1.2937,-0.0801,-0.3965,81.5038,41.3359,-36.2824
1.2312,-0.0696,-0.4058,79.771,39.7863,-38.5267
1.199,-0.0659,-0.4204,77.8168,37.9389,-39.4809
1.1357,-0.0479,-0.4268,75.6718,35.0916,-39.9313
1.0881,-0.0276,-0.4373,73.5878,32.1298,-39.1985
1.0427,0.0,-0.447,71.0992,28.7863,-37.229
0.9978,0.0249,-0.4409,68.2901,25.3053,-34.5038
0.9697,0.043,-0.4526,65.0229,21.7252,-31.6107
0.9539,0.0684,-0.46,61.7405,18.4733,-27.9008
0.9419,0.0696,-0.4651,58.2595,15.3282,-23.8779
0.9351,0.0901,-0.4846,54.4275,12.2214,-19.8321
0.9387,0.0859,-0.4958,50.5191,9.6641,-15.5267
0.9399,0.0837,-0.4915,46.5954,7.2748,-11.8779
0.9553,0.0815,-0.5085,42.5954,5.3893,-8.3435
0.9639,0.0823,-0.5078,38.4809,3.855,-5.2519
0.9807,0.0854,-0.5032,34.7099,2.4733,-2.5725
1.0083,0.0759,-0.4998,30.9389,1.3282,-0.3588
1.0371,0.0691,-0.4814,27.3511,0.4809,1.3206
1.0652,0.0586,-0.4705,23.8321,-0.3588,2.3053
1.0752,0.0542,-0.4656,20.7328,-1.2672,2.9695
1.1099,0.0503,-0.4531,17.4427,-2.0229,2.7023
1.1343,0.0286,-0.437,14.5954,-2.5115,2.5038
1.1614,0.0193,-0.4194,11.9695,-2.8702,1.6336
1.1892,0.0107,-0.3979,9.8779,-3.3664,0.2137
1.2051,0.0032,-0.3792,7.7252,-3.7023,-1.313
1.2151,-0.0015,-0.3569,5.3817,-4.0382,-3.9084
1.2422,-0.0127,-0.3423,3.916,-4.374,-6.0687
1.2493,-0.0176,-0.3315,2.7634,-4.4809,-8.5802
1.2537,-0.0393,-0.3074,1.9924,-4.7786,-11.2672
1.2607,-0.0537,-0.2986,1.2824,-4.8015,-13.8702
1.2561,-0.0579,-0.291,0.8931,-4.4198,-16.458
1.2581,-0.062,-0.2837,0.626,-4.2137,-18.687
1.2532,-0.0654,-0.2815,0.6718,-4.2824,-21.1527
1.2573,-0.0808,-0.2778,0.626,-3.7099,-23.8779
1.24,-0.0688,-0.2664,0.6718,-3.4809,-25.8015
1.2183,-0.0737,-0.2422,0.5649,-3.0,-27.8931
1.2161,-0.0686,-0.2419,0.3893,-2.7863,-29.771
1.1936,-0.0583,-0.2278,0.3893,-3.0534,-31.5954
1.1721,-0.0615,-0.2107,0.1527,-3.3511,-33.2977
1.1641,-0.0557,-0.2087,-0.0611,-3.9847,-34.7481
1.1443,-0.0491,-0.1938,-0.3435,-4.9542,-35.9771
1.1289,-0.0508,-0.1831,-0.3511,-6.0916,-37.0076
1.1067,-0.0461,-0.1628,-0.7557,-7.2672,-38.1985
1.0786,-0.0564,-0.175,-0.7939,-8.2443,-38.9542
1.0559,-0.0583,-0.1643,-0.7099,-9.0,-39.0458
1.0322,-0.0586,-0.1724,-0.4351,-9.771,-39.6336
1.0127,-0.0608,-0.1707,-0.1069,-10.3359,-39.8779
0.9956,-0.0576,-0.1665,0.4046,-10.7099,-39.6565
0.9729,-0.0564,-0.1665,1.2061,-11.8244,-39.0305
0.9485,-0.0518,-0.1633,1.855,-12.9313,-38.2977
0.9282,-0.0459,-0.1692,2.4656,-14.0611,-36.9466
0.9001,-0.0403,-0.177,3.0229,-15.4046,-35.0229
0.8872,-0.0283,-0.1753,3.7099,-16.5878,-32.7634
0.8767,-0.0247,-0.1819,4.0916,-17.5649,-30.3435
0.8704,-0.0215,-0.1865,4.5344,-18.7557,-27.4733
0.8655,-0.0146,-0.1931,4.6641,-19.0916,-25.0763
0.8699,-0.012,-0.2017,5.1221,-19.855,-21.6107
0.8738,0.0012,-0.2063,5.1527,-20.5649,-18.3282
0.8901,0.0085,-0.2095,5.1679,-20.6107,-15.4656
0.905,0.0095,-0.2075,5.1756,-20.5267,-12.5725
0.9109,0.0098,-0.2185,4.9313,-20.2672,-9.7328
0.9377,0.0134,-0.2258,4.5496,-19.4198,-7.6031
0.9646,0.0156,-0.2273,4.229,-18.1603,-5.9313
0.9829,0.0088,-0.2314,3.5496,-16.8092,-4.2977
0.9924,0.009,-0.2322,3.145,-15.1527,-3.0153
1.0205,0.0115,-0.2351,2.5725,-13.5344,-2.4275
1.0442,0.0093,-0.2205,2.145,-11.5573,-2.1069
1.0564,0.0112,-0.2209,1.8473,-9.4275,-1.8626
1.0798,0.0159,-0.2136,1.4504,-7.4198,-2.0763
1.0918,0.0132,-0.207,1.0458,-5.687,-2.9618
1.1016,0.0139,-0.2019,0.8626,-3.687,-3.5954
1.113,0.0181,-0.1956,0.4275,-1.8702,-4.458
1.113,0.0103,-0.1926,-0.0611,-0.0229,-5.7557
1.1189,0.009,-0.1831,-0.1985,1.1908,-6.9237
1.1177,0.0037,-0.1831,-0.3588,2.4275,-8.2366
1.1189,0.0042,-0.1797,-0.6641,3.8092,-9.6336
1.1155,0.0037,-0.1677,-1.0992,4.8931,-10.9771
1.1013,0.0129,-0.1692,-1.1298,5.6641,-12.2214
1.0886,0.0093,-0.1521,-1.626,6.2137,-13.4275
1.083,0.0125,-0.1609,-1.7557,6.6107,-14.7557
1.0688,0.0066,-0.1499,-2.1832,6.8397,-15.7176
1.0542,0.0085,-0.1545,-2.8397,6.9313,-16.1603
1.0515,0.0024,-0.1519,-2.8779,6.7863,-16.3359
1.05,0.0085,-0.1526,-3.2519,6.5267,-16.5038
1.0313,0.0129,-0.1521,-3.542,6.0534,-16.4656
1.0298,0.0149,-0.1492,-4.2977,5.4504,-16.4198
1.0168,0.0154,-0.1484,-4.9389,4.7863,-15.9924
1.0132,0.0149,-0.135,-5.4962,4.313,-15.458
1.0076,0.012,-0.1375,-6.4198,3.5267,-15.145
1.0105,0.0127,-0.1531,-6.8473,3.2137,-14.5344
1.0032,0.0146,-0.1472,-7.8168,2.6412,-14.0229
1.0027,0.0046,-0.1306,-8.4198,2.3206,-13.8168
1.0032,-0.0027,-0.1289,-9.0916,2.0305,-13.3969
0.9932,-0.0098,-0.1196,-9.8168,1.4275,-12.7939
0.9966,-0.0051,-0.103,-10.3588,0.8015,-12.458
0.9927,-0.0129,-0.0925,-10.8779,0.2824,-11.9389
0.9878,-0.0034,-0.0857,-11.1679,-0.5496,-11.8931
0.9819,-0.0063,-0.0649,-11.1679,-1.3893,-11.4351
0.9814,-0.0042,-0.0542,-11.1679,-2.0,-11.0076
0.9846,-0.0051,-0.0415,-10.5344,-2.9771,-10.4809
0.9902,-0.0076,-0.0386,-10.1221,-3.7252,-10.0916
0.9868,-0.0154,-0.0278,-9.5725,-4.542,-9.9542
0.9937,-0.0103,-0.0205,-8.5649,-5.0916,-9.5649
0.9954,-0.0181,-0.0068,-7.6107,-5.6336,-9.0305
0.9978,-0.0195,-0.01,-6.6107,-6.1298,-8.8626
0.998,-0.021,0.0037,-5.6565,-6.6718,-8.4962
1.0039,-0.0205,0.0039,-4.229,-7.2748,-8.2748
1.009,-0.0227,-0.0032,-3.1069,-7.458,-7.9084
1.0159,-0.0229,-0.0039,-1.7023,-7.8397,-7.687
1.02,-0.0227,0.0007,-0.2137,-7.9695,-7.4885
1.0107,-0.0278,0.0022,1.0992,-7.8397,-7.2748
1.01,-0.0278,0.0017,2.2519,-7.4809,-7.2366
1.0107,-0.0195,-0.0068,3.6718,-7.2366,-7.2977
1.0142,-0.02,-0.0127,4.7634,-6.6718,-6.9389
1.0098,-0.0156,-0.0117,6.1221,-6.2443,-6.6107
1.0032,-0.0078,-0.0176,7.0458,-5.8473,-6.4275
1.002,-0.0039,-0.0173,8.2443,-5.626,-5.7557
0.9971,-0.0002,-0.0237,9.0916,-4.9847,-5.145
0.9961,0.0032,-0.0332,9.5954,-4.5649,-4.0305
0.9941,0.0115,-0.0342,10.2214,-3.8015,-3.4427
0.9932,0.0134,-0.0481,10.6794,-3.0458,-2.1603
0.9958,0.0144,-0.0525,11.0229,-2.2748,-1.1069
1.0005,0.0188,-0.0603,11.145,-1.0,0.0
0.9976,0.0144,-0.0596,11.3969,-0.0153,1.084
0.9941,0.0195,-0.0676,11.4656,0.9389,2.0992
1.0022,0.0205,-0.0735,11.7176,1.8321,2.916
1.0083,0.0112,-0.073,11.5573,2.8473,3.6565
1.009,0.0171,-0.0637,11.374,3.2443,4.1374
1.0122,0.0291,-0.074,11.5496,3.8702,4.855
1.0186,0.0291,-0.0632,11.542,4.2595,5.0534
1.0151,0.0261,-0.0618,11.4504,4.6412,5.1069
1.0212,0.0295,-0.053,11.3206,4.7023,5.145
1.0176,0.03,-0.0576,11.3053,4.2061,5.1374
1.0164,0.0322,-0.0564,11.0076,3.9389,4.7557
1.0298,0.0325,-0.05,10.771,3.1832,4.3817
1.0298,0.03,-0.0564,10.3206,2.313,4.0305
1.0313,0.0332,-0.0601,9.9618,1.7786,3.6107
1.0332,0.03,-0.0569,9.6718,0.916,3.1603
1.0371,0.0269,-0.0598,9.4351,0.1069,2.9389
1.0378,0.0312,-0.062,8.5725,-0.7099,2.4962
1.0437,0.0308,-0.0686,8.2672,-1.1145,2.1603
1.0403,0.0298,-0.0737,7.9695,-2.0076,1.4198
1.042,0.032,-0.073,7.5344,-2.5954,1.0305
1.0342,0.0315,-0.0815,7.0382,-3.0076,0.8244
1.0356,0.0325,-0.0803,6.4733,-3.7023,0.4351
1.0398,0.0271,-0.0798,6.2595,-4.2519,0.0305
1.0449,0.0269,-0.0784,5.7099,-4.8321,-0.1298
1.0356,0.0317,-0.082,5.1985,-4.9847,-0.5573
1.0369,0.0303,-0.084,4.9008,-5.3664,-0.8092
1.041,0.0334,-0.0942,4.4504,-5.6107,-0.916
1.0425,0.0383,-0.0898,3.9084,-5.9008,-0.8168
1.0479,0.0356,-0.0945,3.7023,-5.916,-1.0229
1.0513,0.0354,-0.0884,3.374,-6.0611,-0.7405
1.0535,0.0283,-0.092,3.0916,-5.9466,-0.3893
1.0564,0.0303,-0.0947,2.7557,-6.0458,-0.5115
1.0588,0.0286,-0.0952,2.4351,-6.0153,-0.1374
1.0615,0.0283,-0.0977,1.9237,-5.6183,-0.2214
1.0703,0.0251,-0.0881,1.9084,-5.2061,-0.0153
1.0732,0.0188,-0.0908,1.5038,-4.8244,-0.313
1.0762,0.0212,-0.1045,1.2137,-4.1985,-0.4351
