ax,ay,az,gx,gy,gz
1.0977,-0.28,0.5637,101.9924,-74.6183,96.6489
1.1072,-0.3103,0.5674,108.084,-75.8321,97.6336
1.1184,-0.3303,0.5674,114.0076,-76.7939,98.7252
1.1272,-0.3467,0.5818,118.6412,-77.8168,99.2519
1.1262,-0.3582,0.5869,123.8244,-78.7023,100.2137
1.1414,-0.385,0.6042,130.7939,-79.7099,101.1679
1.1521,-0.3887,0.6155,136.5191,-80.8168,101.1832
1.1575,-0.4072,0.6335,142.7328,-82.6031,101.3359
1.1646,-0.408,0.6304,148.6412,-84.0916,101.7863
1.1768,-0.4209,0.6533,156.8092,-86.1527,102.3359
1.1948,-0.4346,0.6497,163.6183,-87.855,102.542
1.2148,-0.449,0.6531,170.5114,-89.4657,102.9695
1.2373,-0.4705,0.6433,177.2061,-92.6107,102.9542
1.2607,-0.4934,0.6309,183.6947,-94.5954,102.9313
1.2957,-0.5029,0.6294,190.374,-96.0916,103.2672
1.3315,-0.5203,0.616,196.8473,-95.3359,103.4198
1.3528,-0.5264,0.6016,203.0305,-95.7863,103.8244
1.3943,-0.5303,0.5808,210.1145,-98.8092,103.229
1.4353,-0.5449,0.5459,216.4046,-97.1832,102.687
1.4771,-0.5586,0.5142,222.5649,-97.5267,101.5802
1.5188,-0.5713,0.4851,228.3053,-95.6183,100.4427
1.5681,-0.5798,0.4475,233.7405,-97.5191,98.7481
1.603,-0.5879,0.4172,238.6718,-94.5725,96.6794
1.6484,-0.5942,0.3901,243.1756,-93.9924,93.9847
1.6965,-0.6045,0.365,247.6641,-94.8168,91.3359
1.7368,-0.613,0.3296,250.1298,-95.7634,88.1069
1.7573,-0.6133,0.3101,250.1298,-98.7099,84.2519
1.814,-0.6235,0.2603,250.1298,-98.4427,79.9618
1.8596,-0.6172,0.2131,250.1298,-98.5038,75.771
1.9011,-0.6086,0.1768,250.1298,-99.374,70.771
1.9504,-0.6128,0.1318,250.1298,-99.626,65.0076
1.9805,-0.624,0.0874,250.1298,-99.7252,58.8092
1.9999,-0.6304,0.0498,250.1298,-100.0076,51.9237
1.9999,-0.6233,0.012,250.1298,-100.7328,44.9237
1.9999,-0.6208,-0.0042,250.1298,-101.5649,38.1527
1.9999,-0.6194,-0.0244,250.1298,-102.9008,30.1298
1.9999,-0.6179,-0.0623,250.1298,-104.2366,22.0153
1.9999,-0.6167,-0.0908,250.1298,-105.1679,13.916
1.9999,-0.6003,-0.1355,250.1298,-106.7023,5.3893
1.9999,-0.5886,-0.1558,250.1298,-108.2824,-3.5725
1.9999,-0.5908,-0.2185,250.1298,-109.1832,-12.7634
1.9999,-0.5876,-0.2681,250.1298,-109.7023,-22.2901
1.9999,-0.5808,-0.3076,250.1298,-110.0,-31.9924
1.9999,-0.5725,-0.3247,250.1298,-110.2824,-41.8473
1.9999,-0.5483,-0.3638,250.1298,-110.7099,-52.3511
1.9999,-0.521,-0.4038,250.1298,-111.1985,-63.6336
1.9999,-0.5125,-0.4299,250.1298,-111.1756,-75.3588
1.9999,-0.5137,-0.4365,250.1298,-111.7863,-87.0458
1.9999,-0.5007,-0.4753,250.1298,-111.5496,-99.229
1.9999,-0.5181,-0.4988,250.1298,-111.0305,-112.2901
1.9999,-0.5259,-0.5239,249.7939,-110.2443,-125.1145
1.9999,-0.5183,-0.5449,245.7863,-108.9008,-137.7634
1.9999,-0.5071,-0.5513,241.3664,-106.8779,-151.4351
1.9999,-0.5173,-0.5701,236.7939,-104.7786,-163.4886
1.9999,-0.5271,-0.594,232.2824,-101.7328,-175.2214
1.9999,-0.5369,-0.5986,227.9008,-98.8931,-186.6794
1.9999,-0.5371,-0.5952,223.6107,-96.5191,-197.5343
1.9999,-0.5425,-0.6118,219.5114,-95.3359,-207.7786
1.9999,-0.5376,-0.613,215.6031,-92.6183,-217.9389
1.9999,-0.5356,-0.6182,212.3664,-89.3588,-226.7939
1.9999,-0.5454,-0.6128,208.771,-86.6031,-235.626
1.9999,-0.5474,-0.6123,205.8397,-84.7481,-243.7176
1.9999,-0.5518,-0.5981,202.9924,-82.5954,-250.1374
1.9771,-0.5625,-0.5879,199.8168,-79.8779,-250.1374
1.9282,-0.5884,-0.5776,197.4733,-77.7023,-250.1374
1.8801,-0.6182,-0.5737,195.1221,-76.3893,-250.1374
1.8425,-0.637,-0.5522,193.4122,-75.3893,-250.1374
1.8047,-0.6543,-0.5405,191.5878,-75.8092,-250.1374
1.7769,-0.6636,-0.5232,190.5191,-76.8779,-250.1374
1.7419,-0.666,-0.5103,189.626,-77.916,-250.1374
1.7192,-0.6614,-0.4971,189.2901,-80.3893,-250.1374
1.7151,-0.6675,-0.5095,189.3359,-82.8321,-250.1374
1.7029,-0.6709,-0.5103,189.7634,-86.2595,-250.1374
1.6787,-0.6775,-0.522,190.0916,-90.5038,-250.1374
1.6665,-0.6907,-0.5286,190.3969,-92.3053,-250.1374
1.667,-0.6982,-0.5347,191.0458,-96.542,-250.1374
1.6628,-0.7031,-0.564,191.1069,-102.8779,-250.1374
1.6609,-0.7078,-0.5852,190.6565,-107.1603,-250.1374
1.6602,-0.698,-0.605,189.9695,-111.8397,-250.1374
1.6726,-0.6892,-0.6257,188.687,-116.1679,-250.1374
1.6716,-0.6846,-0.6494,187.1908,-120.2672,-250.1374
1.6746,-0.6685,-0.6609,184.7023,-124.0153,-250.1374
1.6912,-0.6438,-0.6951,182.3053,-127.4351,-250.1374
1.6987,-0.6326,-0.7312,179.5802,-130.5343,-250.1374
1.7063,-0.6128,-0.7654,176.374,-132.7939,-250.1374
1.7224,-0.6001,-0.8191,172.9695,-133.8397,-250.1374
1.7266,-0.5747,-0.8748,169.0763,-133.5343,-250.1374
1.7407,-0.5586,-0.9343,164.6641,-131.8397,-250.1374
1.7432,-0.5503,-0.959,160.7176,-129.2061,-250.1374
1.7444,-0.5203,-1.0166,155.4275,-124.7176,-250.1374
1.7517,-0.4929,-1.0735,149.9924,-119.3664,-250.1374
1.7441,-0.4673,-1.1318,144.0458,-113.229,-250.1374
1.7383,-0.4321,-1.1763,137.855,-106.0916,-250.1374
1.7332,-0.4155,-1.2251,130.771,-98.7939,-250.1374
1.7217,-0.3987,-1.2561,122.6565,-91.8092,-250.1374
1.7,-0.3862,-1.2881,114.7405,-81.6947,-250.1374
1.6638,-0.3813,-1.2932,106.8702,-72.2443,-250.1374
1.6504,-0.3757,-1.3115,97.1145,-61.8015,-250.1374
1.6077,-0.3638,-1.3396,88.0534,-50.4275,-250.1374
1.5571,-0.3445,-1.3569,79.2137,-39.6107,-250.1374
1.5,-0.3159,-1.3699,71.2824,-28.2672,-250.1374
1.4314,-0.3003,-1.4067,63.5954,-17.1298,-250.1374
1.3667,-0.27,-1.4226,56.8702,-6.1908,-250.1374
1.2991,-0.2573,-1.458,50.687,4.4046,-250.1374
1.2261,-0.2319,-1.468,44.0763,14.0076,-250.1374
1.1934,-0.2175,-1.4841,37.4198,22.6183,-250.1374
1.1135,-0.2012,-1.4778,31.3359,29.4809,-250.1374
1.0422,-0.1858,-1.4507,25.1069,34.5115,-250.1374
0.978,-0.1697,-1.4348,18.1603,38.7023,-250.1374
0.9153,-0.1687,-1.3843,10.6489,40.1069,-250.1374
0.866,-0.1638,-1.3315,2.2901,38.4198,-250.1374
0.8337,-0.1501,-1.2939,-5.5802,34.4656,-250.1374
0.8025,-0.1326,-1.2991,-13.9008,29.8015,-250.1374
0.7852,-0.1191,-1.2888,-21.4504,24.3053,-250.1374
0.7566,-0.1016,-1.2964,-30.4351,16.9008,-250.1374
0.7327,-0.0779,-1.3049,-38.7176,9.8092,-250.1374
0.7102,-0.0579,-1.3069,-47.2443,2.374,-250.1374
0.6841,-0.03,-1.3206,-56.9695,-6.5191,-250.1374
0.6548,-0.0044,-1.3347,-65.3817,-13.4122,-250.1374
0.6248,0.019,-1.3193,-73.8397,-20.4809,-250.1374
0.5867,0.0361,-1.3276,-82.4046,-26.2824,-250.1374
0.5359,0.0537,-1.3098,-90.6947,-32.0076,-250.1374
0.4863,0.0693,-1.2791,-99.1221,-38.5878,-250.1374
0.4373,0.071,-1.2651,-107.1832,-44.4885,-250.1374
0.3818,0.0894,-1.2397,-115.2443,-50.4046,-250.1374
0.3604,0.0916,-1.23,-123.8092,-56.0153,-250.1374
0.3049,0.1174,-1.207,-132.4657,-62.4427,-250.1374
0.2539,0.1274,-1.1838,-140.0076,-69.0305,-250.1374
0.2097,0.1365,-1.1611,-146.6718,-74.9618,-250.1374
0.1597,0.1431,-1.1218,-152.7099,-80.5343,-250.1374
0.1113,0.1306,-1.0918,-157.9313,-86.458,-250.1374
0.0708,0.1233,-1.0505,-162.8779,-92.0687,-250.1374
0.0256,0.1145,-1.0005,-167.6488,-98.8397,-250.1374
-0.0217,0.1025,-0.9583,-171.3282,-107.5878,-250.1374
-0.0413,0.0947,-0.9231,-174.1221,-114.6183,-250.1374
-0.063,0.0874,-0.8657,-177.3664,-123.6031,-250.1374
-0.0923,0.0872,-0.8152,-179.229,-132.6794,-250.1374
-0.0991,0.0713,-0.7712,-180.6794,-141.771,-250.1374
-0.113,0.0771,-0.7244,-181.6488,-150.6183,-250.1374
-0.1248,0.083,-0.6904,-182.2748,-159.542,-250.1374
-0.1267,0.0847,-0.6494,-182.0458,-168.3435,-250.1374
-0.1257,0.0937,-0.6133,-181.5878,-176.7481,-250.1374
-0.1279,0.0999,-0.6003,-180.7481,-184.5802,-250.1374
-0.1248,0.1118,-0.5688,-179.0458,-193.4962,-250.1374
-0.124,0.1211,-0.5381,-177.313,-201.2901,-250.1374
-0.1182,0.1367,-0.4954,-175.1374,-209.4733,-250.1374
-0.1055,0.1523,-0.4775,-172.5954,-217.2901,-250.1374
-0.0852,0.1643,-0.4438,-169.8855,-225.2748,-250.1374
-0.0596,0.1687,-0.4355,-166.6107,-232.9237,-245.7939
-0.043,0.1809,-0.4238,-163.0076,-239.9847,-239.9847
-0.0242,0.1938,-0.4285,-159.374,-246.0534,-234.7557
-0.0173,0.1975,-0.4353,-155.8779,-250.1374,-229.7176
0.0205,0.198,-0.4443,-151.6488,-250.1374,-225.0458
0.0432,0.1956,-0.47,-147.8168,-250.1374,-220.313
0.0659,0.1909,-0.4875,-144.0076,-250.1374,-216.3435
0.0955,0.2012,-0.5076,-140.4046,-250.1374,-212.3817
0.1174,0.2107,-0.5396,-137.0534,-250.1374,-208.1756
0.1514,0.2153,-0.575,-133.6947,-250.1374,-203.7863
0.1929,0.2139,-0.6008,-130.7328,-250.1374,-199.8931
0.1978,0.2141,-0.6167,-128.1985,-250.1374,-196.1374
0.2251,0.2141,-0.6482,-125.687,-250.1374,-192.3282
0.248,0.2234,-0.6858,-123.7557,-250.1374,-188.8244
0.271,0.2295,-0.709,-122.1374,-250.1374,-185.4275
0.2849,0.2307,-0.719,-121.3206,-248.8473,-182.8626
0.3013,0.2385,-0.7344,-120.9084,-244.9008,-180.4962
0.3162,0.2395,-0.7583,-120.8626,-240.4733,-178.374
0.3279,0.2351,-0.7705,-121.4809,-235.5267,-176.771
0.3279,0.2366,-0.7888,-122.374,-231.1679,-175.5802
0.3342,0.241,-0.8071,-123.8855,-225.5038,-174.4427
0.3308,0.2485,-0.8118,-125.4885,-219.8855,-173.3893
0.321,0.2505,-0.824,-127.5725,-213.9084,-172.6107
0.3171,0.2625,-0.8225,-129.8702,-207.0992,-171.8244
0.2966,0.2644,-0.8101,-131.8321,-201.5802,-171.3435
0.282,0.2988,-0.8123,-133.9924,-195.771,-170.3282
0.2473,0.3149,-0.8081,-136.4809,-190.5267,-170.2519
0.2271,0.3499,-0.8044,-139.0458,-185.3206,-169.7786
0.2021,0.3665,-0.8167,-141.4733,-178.6031,-168.4886
0.1519,0.3577,-0.7742,-143.3893,-173.626,-167.5496
0.1047,0.3591,-0.7542,-145.1145,-170.0611,-166.5954
0.0859,0.3533,-0.7573,-146.5878,-166.6641,-165.2061
0.04,0.3484,-0.7336,-148.3512,-164.1908,-163.8473
0.002,0.3518,-0.7231,-150.1374,-162.1679,-162.1985
-0.0366,0.3674,-0.7112,-151.6336,-159.5878,-159.6565
-0.0803,0.377,-0.6946,-152.6488,-157.7863,-157.2824
-0.1106,0.3882,-0.6819,-153.4504,-155.7023,-154.0382
-0.1418,0.3992,-0.6782,-154.2061,-153.5267,-150.2595
-0.1704,0.4072,-0.6584,-154.229,-150.8779,-145.5038
-0.1963,0.4224,-0.6455,-154.4275,-148.8092,-140.6336
-0.2134,0.4226,-0.636,-154.145,-146.5191,-135.3817
-0.2451,0.4272,-0.6343,-153.4809,-144.9084,-129.855
-0.2722,0.4197,-0.6111,-152.6336,-143.8931,-124.0687
-0.2957,0.4231,-0.5972,-151.4427,-143.2214,-118.3282
-0.3127,0.4246,-0.5913,-150.084,-142.7328,-112.1679
-0.335,0.4397,-0.5923,-148.4275,-142.3359,-106.1298
-0.3459,0.45,-0.5874,-147.0916,-142.4046,-99.8321
-0.3708,0.4597,-0.5767,-145.313,-142.4122,-94.9237
-0.3818,0.4792,-0.5667,-143.7252,-142.9847,-87.8168
-0.3855,0.4878,-0.5664,-142.6718,-143.8855,-81.084
-0.4072,0.5022,-0.5659,-141.2672,-144.9618,-74.9924
-0.4011,0.5056,-0.5576,-140.5114,-146.6565,-68.4885
-0.4099,0.5054,-0.5442,-139.8092,-149.458,-62.3053
-0.3982,0.5134,-0.55,-139.3664,-153.0763,-55.6412
-0.3945,0.5049,-0.5403,-138.7099,-157.3512,-49.3511
-0.3931,0.5012,-0.5483,-138.8397,-162.1221,-43.687
-0.387,0.502,-0.5554,-138.6488,-167.5343,-37.8626
-0.3787,0.5076,-0.5554,-138.9389,-173.3817,-32.3893
-0.3689,0.5154,-0.5522,-139.5802,-178.8626,-27.5649
-0.3528,0.5144,-0.5574,-140.0,-184.0611,-23.2214
-0.3337,0.5308,-0.5505,-140.8779,-189.1069,-19.2595
-0.3086,0.5364,-0.5479,-141.7786,-193.7939,-15.6565
-0.2861,0.5515,-0.5544,-142.9771,-198.1145,-12.2901
-0.2649,0.5547,-0.5498,-144.2519,-202.145,-9.1069
-0.2439,0.5647,-0.5752,-145.5954,-205.145,-5.9924
-0.2319,0.564,-0.5852,-147.3282,-207.3969,-3.2214
-0.2185,0.5603,-0.5864,-148.7939,-209.2137,-0.4427
-0.1982,0.5588,-0.6057,-150.8473,-210.0763,2.0076
-0.1755,0.55,-0.6182,-153.0305,-210.0916,4.5344
-0.1724,0.5454,-0.6355,-155.3435,-209.626,6.8702
-0.167,0.5408,-0.635,-158.0534,-208.3588,9.2595
-0.1587,0.521,-0.6526,-160.7176,-206.4657,11.855
-0.1589,0.5002,-0.6487,-163.8473,-203.5343,14.9008
-0.1658,0.4871,-0.6589,-166.6031,-200.0458,18.1527
-0.165,0.4709,-0.6528,-169.7252,-196.4351,22.1527
-0.1792,0.4736,-0.6423,-173.2901,-192.1298,27.3053
-0.1816,0.4734,-0.6321,-176.0687,-187.3359,32.6794
-0.1848,0.4878,-0.6191,-178.7481,-182.084,38.9695
-0.2007,0.4949,-0.6003,-181.916,-174.6488,47.1145
-0.2087,0.501,-0.5806,-184.5573,-168.0458,54.6947
-0.2217,0.5015,-0.5718,-186.8168,-160.7176,62.4046
-0.2297,0.5022,-0.5552,-188.8397,-152.9847,70.4198
-0.2344,0.4954,-0.5325,-190.4275,-145.3053,78.0916
-0.2495,0.489,-0.5273,-192.0229,-138.4198,86.0611
-0.2561,0.4819,-0.4934,-193.5114,-131.5191,93.8168
-0.2563,0.4836,-0.4929,-194.6488,-124.7786,101.3359
-0.2793,0.4775,-0.4646,-195.7634,-118.9847,108.6031
-0.29,0.4839,-0.4451,-196.8015,-113.7557,115.9313
-0.2974,0.4812,-0.4077,-197.7481,-108.9618,122.7786
-0.3091,0.481,-0.3972,-198.5038,-104.6412,129.9389
-0.3218,0.4827,-0.3662,-199.5496,-101.0992,137.0458
-0.3264,0.4797,-0.3406,-200.4504,-97.7023,143.3435
-0.3357,0.4763,-0.3267,-201.4733,-97.2901,149.7634
-0.3313,0.4709,-0.3188,-202.3206,-94.0687,155.4657
-0.3401,0.4717,-0.3032,-203.1832,-93.6489,161.9008
-0.3523,0.4624,-0.2859,-204.4198,-94.0611,167.5954
-0.3484,0.4675,-0.2703,-205.5267,-94.3435,173.1298
-0.3606,0.4612,-0.2488,-206.6718,-94.4657,178.3817
-0.3689,0.4685,-0.2319,-207.9542,-94.5649,183.1527
-0.3777,0.4597,-0.2195,-209.0992,-95.9237,188.1221
-0.3845,0.4609,-0.1992,-210.1908,-99.2824,192.7481
-0.394,0.4558,-0.189,-211.3817,-100.2137,197.9466
-0.3992,0.4553,-0.1826,-212.374,-101.4657,202.3206
-0.4048,0.4536,-0.1636,-213.8092,-103.4275,207.2214
-0.4146,0.4487,-0.1316,-215.1298,-105.5267,212.3817
-0.4197,0.4387,-0.1106,-216.5038,-108.2061,217.4351
-0.4265,0.4187,-0.0774,-217.8092,-110.9924,222.7252
-0.4275,0.4043,-0.0554,-219.1908,-114.145,228.3435
-0.4304,0.3926,-0.0327,-220.5343,-117.229,234.1603
-0.4265,0.364,-0.012,-221.4657,-120.4657,240.2748
-0.4243,0.3535,-0.0022,-222.5802,-123.229,246.1145
-0.4111,0.3206,0.0222,-223.2519,-126.3053,250.1298
-0.4048,0.2932,0.033,-223.6412,-128.4504,250.1298
-0.3806,0.2627,0.0686,-223.7481,-130.7634,250.1298
-0.3635,0.2324,0.0845,-223.6031,-132.2061,250.1298
-0.3538,0.2039,0.1138,-222.8244,-133.2901,250.1298
-0.3306,0.1602,0.1357,-222.1221,-133.7863,250.1298
-0.3127,0.1196,0.1633,-221.0992,-133.5802,250.1298
-0.2856,0.0647,0.1936,-220.0305,-132.9847,250.1298
-0.2744,0.0413,0.2026,-218.5496,-131.4886,250.1298
-0.2495,0.0054,0.2358,-216.4504,-129.8321,250.1298
-0.208,-0.0464,0.2759,-214.1298,-128.1145,250.1298
-0.1741,-0.084,0.3225,-211.3664,-126.9466,250.1298
-0.1306,-0.1157,0.3721,-208.2672,-126.1603,250.1298
-0.0854,-0.1445,0.4351,-204.4427,-125.5573,250.1298
-0.0388,-0.1599,0.4827,-200.1832,-125.3511,250.1298
0.0156,-0.1973,0.5413,-195.458,-125.1221,250.1298
0.0459,-0.2129,0.5562,-190.0916,-124.9847,250.1298
0.1147,-0.2463,0.6006,-183.8092,-125.4046,250.1298
0.1821,-0.2644,0.6453,-177.626,-124.9313,250.1298
0.248,-0.2764,0.6851,-170.4046,-124.084,250.1298
0.3279,-0.2944,0.7122,-162.5191,-123.2595,250.1298
0.4109,-0.2915,0.7446,-152.4733,-121.3817,250.1298
0.4863,-0.301,0.7708,-143.458,-119.5802,250.1298
0.5762,-0.3035,0.7939,-133.9313,-116.9313,250.1298
0.637,-0.3081,0.8223,-124.1756,-113.771,250.1298
0.7109,-0.3152,0.8589,-113.9618,-110.2748,250.1298
0.7756,-0.3074,0.8735,-104.1069,-106.7099,250.1298
0.8608,-0.2964,0.8872,-93.8092,-103.2824,250.1298
0.866,-0.3022,0.9075,-83.2672,-99.7328,250.1298
0.9387,-0.2944,0.9226,-72.8931,-97.2214,250.1298
0.9734,-0.2939,0.9438,-62.9924,-93.084,250.1298
0.9988,-0.2764,0.9668,-53.1603,-93.3359,250.1298
1.0461,-0.2646,0.9917,-42.8321,-94.084,250.1298
1.0896,-0.238,1.0007,-33.2214,-94.8321,250.1298
1.1187,-0.2073,1.0112,-23.7023,-94.542,250.1298
1.1462,-0.177,0.9946,-14.9084,-94.1679,250.1298
1.1692,-0.1553,0.9807,-6.3053,-94.1756,250.1298
1.1851,-0.1379,0.9651,2.0687,-93.8168,250.1298
1.1958,-0.1252,0.9463,9.7939,-93.3511,250.1298
1.2134,-0.113,0.9385,16.6718,-92.5954,250.1298
1.2141,-0.0937,0.927,23.3969,-88.8779,250.1298
1.2217,-0.0688,0.9167,29.7328,-86.7328,250.1298
1.2148,-0.0635,0.8992,35.6794,-84.3511,250.1298
1.2122,-0.0542,0.8899,41.6641,-81.1908,250.1298
1.218,-0.0425,0.856,47.3969,-78.084,250.1298
1.22,-0.0457,0.8403,52.7099,-74.7405,250.1298
1.2083,-0.0469,0.8284,58.5802,-70.9847,250.1298
1.2056,-0.0449,0.7964,64.1832,-66.7252,250.1298
1.2034,-0.0583,0.7705,69.7328,-62.0916,250.1298
1.2063,-0.0496,0.7444,75.0992,-57.313,250.1298
1.2002,-0.041,0.7251,80.4198,-51.6718,250.1298
1.1965,-0.0347,0.7095,85.542,-45.3435,250.1298
1.1938,-0.0254,0.6904,90.5802,-38.8244,250.1298
1.1958,-0.0266,0.6792,94.7252,-32.5496,250.1298
1.1987,-0.0229,0.6646,99.855,-25.2137,250.1298
1.1982,-0.0208,0.6499,103.8321,-18.5802,250.1298
1.2021,-0.0198,0.6282,108.1908,-12.0305,250.1298
1.2092,-0.0063,0.6121,112.1679,-5.6183,250.1298
1.2239,-0.0154,0.5879,116.3969,1.1145,250.1298
1.2307,-0.0117,0.5696,119.2443,7.9389,250.1298
1.2529,-0.0154,0.5444,122.2519,15.0229,250.1298
1.2715,-0.0242,0.531,126.9924,22.0382,250.1298
1.2864,-0.0229,0.5149,130.0305,28.8855,250.1298
1.3062,-0.0239,0.4956,132.9847,36.0916,250.1298
1.3289,-0.0298,0.4866,135.7099,42.9618,250.1298
1.342,-0.0295,0.4792,138.4046,50.1221,250.1298
1.3489,-0.0134,0.4814,140.687,57.4427,250.1298
1.3601,-0.0149,0.4819,142.7023,64.3893,250.1298
1.3701,-0.0083,0.5066,145.0611,70.2366,250.1298
1.3728,-0.0081,0.52,146.5954,75.3282,250.1298
1.3813,-0.0098,0.5222,148.1527,78.9237,250.1298
1.3872,-0.0132,0.5232,149.8015,80.6336,250.1298
1.3958,-0.0173,0.5352,151.1603,79.9847,250.1298
1.4077,-0.0286,0.5496,152.4198,78.0611,250.1298
1.4255,-0.0388,0.5518,153.2595,73.7557,250.1298
1.4348,-0.0581,0.5688,154.1069,65.313,250.1298
1.4521,-0.0598,0.5796,154.2977,56.9084,250.1298
1.467,-0.0728,0.5901,154.8168,47.3588,250.1298
1.4939,-0.0752,0.5945,154.4962,37.1756,250.1298
1.5117,-0.0806,0.5974,154.2824,26.4504,250.1298
1.5349,-0.0764,0.6042,154.0763,15.1603,250.1298
1.5532,-0.0781,0.6028,153.3817,3.2824,245.6412
1.5706,-0.0823,0.606,152.6641,-8.6183,237.0763
1.5977,-0.0759,0.593,151.9008,-20.4275,228.3664
1.5989,-0.0801,0.5898,151.2672,-31.7328,219.2901
1.6111,-0.0793,0.5869,150.4733,-42.9771,210.0611
1.6267,-0.0837,0.5728,149.7481,-54.2214,200.0992
1.6313,-0.0781,0.5571,149.2824,-64.5496,191.2061
1.6375,-0.0813,0.5569,148.5343,-74.3588,182.2519
1.6345,-0.0823,0.5488,147.7634,-83.2672,173.9618
1.6328,-0.0818,0.5044,147.5267,-90.7481,166.0229
1.6233,-0.0815,0.4949,147.1221,-97.2748,158.4122
1.6306,-0.0886,0.4939,147.1527,-104.2672,151.9695
1.6299,-0.0837,0.4741,147.2824,-110.4657,145.626
1.6191,-0.0955,0.4558,148.1756,-115.3359,140.0076
1.6165,-0.093,0.4365,148.9237,-119.5573,135.374
1.6211,-0.0925,0.4226,150.3893,-122.7252,131.4733
1.625,-0.1045,0.396,152.0763,-125.9466,128.1221
1.6406,-0.0896,0.3542,154.0687,-127.0458,125.229
1.6587,-0.0928,0.3093,156.5114,-126.1374,123.0992
1.6682,-0.0823,0.2854,159.1756,-123.7023,121.5878
1.679,-0.0801,0.271,161.7481,-119.8626,120.3053
1.6978,-0.0825,0.2307,164.4275,-115.0076,119.2443
1.7092,-0.0774,0.1975,167.0076,-108.9313,118.6489
1.7263,-0.0781,0.1704,169.4198,-101.9008,118.0
1.7358,-0.0752,0.1357,171.9008,-95.8321,117.1603
1.7444,-0.071,0.1177,174.2366,-87.3282,116.6947
1.7563,-0.0649,0.0974,175.8931,-78.1832,115.6565
1.7649,-0.0596,0.0786,177.8397,-70.1374,114.8092
1.7659,-0.0535,0.0652,179.3206,-61.8397,113.6718
1.7681,-0.0452,0.0486,180.9847,-52.9695,112.8702
1.7756,-0.0408,0.0388,182.0458,-45.8855,111.8855
1.7791,-0.0349,0.0398,182.8702,-39.2443,110.458
1.7783,-0.032,0.0215,183.7176,-33.1374,109.1832
1.7844,-0.032,0.0042,184.1145,-27.7176,107.5191
1.7815,-0.022,-0.0173,184.5954,-22.8168,105.6489
1.7832,-0.0334,-0.0437,184.6794,-19.1603,103.8168
1.7905,-0.0474,-0.0457,184.7176,-16.1145,101.5954
1.7942,-0.0398,-0.0676,184.6718,-13.5649,99.2214
1.7979,-0.0422,-0.0906,184.5114,-12.0687,96.5496
1.812,-0.0508,-0.1182,184.1069,-10.8702,93.771
1.8262,-0.0469,-0.1509,183.687,-10.3893,90.5115
1.8296,-0.0325,-0.1685,182.7481,-10.1145,86.9084
1.8457,-0.0259,-0.2007,181.8092,-9.8397,82.7328
1.8491,-0.0156,-0.2354,180.5954,-9.4427,77.9389
1.8535,-0.0007,-0.2712,179.1985,-9.458,72.7634
1.8572,0.0015,-0.2815,177.1221,-9.6336,67.0305
1.8528,0.019,-0.3086,174.3359,-9.9466,61.1374
1.8447,0.0352,-0.3181,171.6031,-10.3282,55.1756
1.8379,0.0471,-0.3467,167.7023,-11.0611,47.6183
1.824,0.0701,-0.3706,163.4275,-11.5802,40.374
1.8071,0.0808,-0.3826,159.3893,-12.7634,33.7863
1.7878,0.0828,-0.4009,154.7634,-14.084,27.771
1.7729,0.0989,-0.408,150.0992,-15.5573,21.771
1.7454,0.1082,-0.4299,145.3817,-16.7023,15.542
1.7124,0.1184,-0.4348,140.6412,-18.3664,10.458
1.6824,0.1152,-0.4573,135.8779,-20.1145,5.6947
1.6519,0.1162,-0.4517,130.9771,-21.4198,1.1374
1.635,0.1223,-0.458,126.4351,-23.1298,-2.4504
1.6104,0.1206,-0.4685,120.3359,-24.7481,-6.0076
1.5759,0.1284,-0.4705,117.1832,-26.4351,-9.0153
1.5479,0.1243,-0.4739,115.1908,-27.6489,-11.3893
1.5215,0.1335,-0.4705,110.3588,-29.1298,-13.5573
1.4968,0.1223,-0.4819,107.2901,-29.9771,-14.8931
1.4714,0.1311,-0.4805,104.4198,-30.7481,-16.0305
1.4514,0.123,-0.4841,101.8473,-30.9924,-16.8015
1.4441,0.1228,-0.4927,99.6565,-30.3588,-16.9237
1.4258,0.1296,-0.4844,97.2748,-29.6489,-16.9695
1.4092,0.1233,-0.5056,95.542,-28.0382,-16.7023
1.3945,0.1179,-0.5142,93.9771,-25.7252,-16.0382
1.3835,0.1187,-0.5188,92.458,-23.0458,-15.1679
1.3657,0.1289,-0.5439,91.0458,-19.9313,-14.1679
1.3533,0.1313,-0.552,89.7176,-16.4427,-12.8473
1.3513,0.1384,-0.5593,88.229,-12.4122,-11.4046
1.3406,0.1462,-0.561,86.7405,-8.7176,-9.8473
1.3369,0.1472,-0.5784,85.2595,-4.6412,-8.3511
1.3267,0.147,-0.5798,83.458,-0.0153,-6.1145
1.3176,0.1523,-0.5769,81.4885,4.0534,-4.5267
1.3086,0.1582,-0.5759,79.4733,8.6794,-2.2977
1.3064,0.1587,-0.585,77.2977,12.3664,-0.8702
1.3022,0.1577,-0.5837,74.8702,16.084,0.3206
1.3,0.1594,-0.5623,72.7786,19.3969,1.771
1.29,0.1631,-0.574,70.0687,22.3817,3.0458
1.2874,0.1582,-0.5691,68.0229,25.1832,3.8244
1.283,0.1482,-0.5608,65.4962,27.7328,4.5115
1.2815,0.1438,-0.5588,63.2672,30.1832,4.8702
1.2827,0.1443,-0.543,60.9618,32.2901,5.1221
1.2698,0.1335,-0.5261,58.7481,33.7405,4.9237
1.2593,0.1304,-0.5222,56.855,34.8244,4.5649
1.2473,0.1284,-0.4917,54.9389,35.3359,3.4504
1.238,0.1196,-0.4812,53.0611,35.5191,2.5496
1.2253,0.1128,-0.4661,51.7634,35.0076,1.3053
1.2163,0.1089,-0.4578,50.313,34.0305,-0.0611
1.2012,0.1052,-0.4373,48.9389,32.5115,-1.2519
1.1873,0.0981,-0.4268,47.8931,30.5191,-2.6031
1.1702,0.0911,-0.406,46.8626,28.1679,-3.9695
1.1497,0.0891,-0.3926,46.1069,25.7023,-5.3053
1.134,0.0854,-0.3892,45.2748,22.6947,-6.2901
1.1116,0.0918,-0.3787,44.6031,19.7252,-7.4962
1.0969,0.0872,-0.3652,44.4198,16.7405,-8.5344
1.0928,0.0969,-0.3601,43.9084,13.5649,-9.7099
1.0764,0.1025,-0.3535,43.6794,10.0534,-10.5115
1.0627,0.0996,-0.3489,43.3435,6.687,-11.2519
1.0569,0.1006,-0.3369,43.1756,2.0611,-11.7786
1.0515,0.093,-0.3452,42.7023,-2.2137,-12.0534
1.0374,0.0986,-0.3474,42.3359,-6.0458,-12.4351
1.0381,0.0964,-0.3604,42.3359,-9.8626,-12.0687
1.0386,0.0874,-0.3804,41.9466,-13.4122,-12.0382
1.0452,0.0972,-0.4016,41.5878,-16.2214,-11.9695
1.0535,0.0994,-0.4189,41.1298,-18.7481,-11.4046
1.0559,0.105,-0.4312,40.5038,-20.4886,-10.9924
1.0632,0.1079,-0.4507,40.0,-22.1145,-10.7099
1.0728,0.1128,-0.4683,38.8244,-22.374,-10.1832
1.082,0.1162,-0.4834,37.4656,-22.6489,-9.9695
1.0894,0.1272,-0.4968,36.1527,-22.313,-9.5802
1.0979,0.1384,-0.5205,34.7328,-21.2672,-9.4885
1.1057,0.1448,-0.5376,32.8168,-20.0229,-9.3206
1.1179,0.156,-0.5398,30.4733,-18.5954,-9.0992
1.1333,0.1648,-0.5466,28.2977,-17.0916,-9.4427
1.1355,0.1699,-0.5537,26.1374,-15.2137,-9.5649
1.1409,0.1677,-0.5488,23.8321,-12.9313,-9.5267
1.1433,0.1643,-0.5454,21.3053,-11.0534,-9.9084
1.144,0.1704,-0.5505,18.626,-8.626,-10.458
1.1465,0.1685,-0.5398,16.145,-6.0076,-10.7099
1.1484,0.1682,-0.5439,13.9771,-3.6031,-11.6565
1.1504,0.1611,-0.5271,11.8473,-1.145,-12.0916
1.1428,0.1577,-0.5195,9.7786,1.2061,-12.687
1.1396,0.1504,-0.5129,7.8397,3.1603,-13.2137
1.1292,0.1458,-0.5073,6.1756,4.8168,-13.916
1.1201,0.1482,-0.4856,4.3435,6.7252,-14.8473
1.1067,0.1396,-0.4619,3.2519,8.0076,-15.1832
1.094,0.1409,-0.4561,2.0076,9.1985,-15.8397
1.0786,0.1399,-0.4368,1.1145,10.2443,-16.5802
1.0703,0.1357,-0.417,-0.0611,10.9695,-16.8168
1.0476,0.1323,-0.3958,-0.458,11.1908,-17.145
1.0322,0.1279,-0.3669,-1.3893,11.4504,-17.1908
1.0125,0.1267,-0.3525,-2.0611,11.313,-17.3435
0.9998,0.1196,-0.3403,-1.9466,10.9695,-17.5267
0.9895,0.1082,-0.3315,-2.5573,10.3511,-17.2748
0.9697,0.1057,-0.3066,-2.8092,9.313,-16.9313
0.9631,0.103,-0.3003,-2.7557,8.1069,-16.626
0.9497,0.1035,-0.2739,-2.7405,6.6794,-16.2137
0.9363,0.1045,-0.2654,-2.6565,5.3435,-15.7099
0.9275,0.1079,-0.2527,-2.2595,3.5725,-15.1145
0.9104,0.1082,-0.2354,-1.9542,1.6565,-14.3053
0.9106,0.1064,-0.2417,-1.542,0.1832,-13.3893
0.9084,0.0991,-0.2244,-1.1298,-1.687,-12.4885
0.8987,0.1018,-0.2173,-0.8321,-3.6031,-11.6412
0.8994,0.0908,-0.2192,-0.2748,-5.5573,-10.9542
0.8931,0.0881,-0.2114,0.1221,-7.6107,-9.626
0.9014,0.0884,-0.1987,0.3664,-9.3359,-8.9924
0.9014,0.0874,-0.1995,1.0076,-10.9237,-8.0076
0.8987,0.0889,-0.1902,1.4046,-12.8244,-7.0305
0.9019,0.0925,-0.1897,1.8244,-14.6565,-5.8321
0.9133,0.0969,-0.1943,2.3664,-16.1832,-5.0687
0.9148,0.0876,-0.1877,2.626,-17.6565,-4.145
0.9246,0.0913,-0.1965,3.3282,-18.8626,-3.1679
0.9368,0.0874,-0.2007,4.0,-19.9237,-2.4122
0.9463,0.0874,-0.1985,4.8473,-20.9847,-1.5267
0.9663,0.0928,-0.2134,5.1221,-21.3893,-0.7252
0.9734,0.0933,-0.2163,5.687,-21.4275,-0.1985
0.9797,0.0891,-0.2278,6.1221,-21.1298,0.4351
0.9966,0.0986,-0.2361,6.3588,-20.626,0.8626
1.0125,0.1023,-0.2329,6.3817,-19.8702,1.4275
1.0327,0.1106,-0.25,6.6794,-18.8168,2.1756
1.0454,0.1091,-0.2581,6.7634,-17.5191,2.5725
1.0549,0.1128,-0.2646,6.6947,-16.1221,2.6565
1.063,0.1121,-0.2639,6.7252,-14.6718,2.7557
1.0754,0.1145,-0.2742,6.6031,-12.6412,3.1298
1.0886,0.123,-0.2856,6.0382,-10.7634,3.1527
1.0945,0.1218,-0.2771,5.8321,-8.771,3.0076
1.1006,0.126,-0.2759,5.374,-6.7786,2.3511
1.1135,0.1345,-0.2776,4.7405,-4.8244,1.9542
1.1216,0.134,-0.2773,4.2214,-2.8779,1.0687
1.1233,0.1462,-0.2678,3.7023,-1.0229,0.4656
1.1296,0.1423,-0.2666,3.3053,0.855,-0.6947
1.1157,0.1418,-0.2705,2.5344,2.4733,-1.7634
1.1199,0.1475,-0.2725,2.0076,4.1069,-3.0
1.1179,0.1443,-0.2583,1.7023,5.3969,-4.3282
1.114,0.1504,-0.259,1.374,6.626,-5.0153
1.1062,0.1462,-0.2705,0.8168,7.5496,-6.3282
1.0947,0.1443,-0.2512,0.6489,8.4275,-7.1603
1.084,0.1426,-0.2517,0.3511,8.9313,-7.855
1.0706,0.1409,-0.2373,-0.2901,9.2901,-8.8473
1.0679,0.1475,-0.2317,-0.6107,9.4962,-9.3664
1.0493,0.1423,-0.2295,-1.2214,9.6031,-10.1145
1.0376,0.1428,-0.2253,-1.6565,9.2137,-10.4885
1.0269,0.1499,-0.2175,-2.084,9.0,-10.9389
1.0122,0.1541,-0.2026,-2.5267,8.4427,-11.0687
0.9937,0.1509,-0.1948,-3.1069,7.8779,-11.3206
0.9895,0.1521,-0.1853,-3.374,7.145,-11.5191
0.9836,0.1392,-0.1731,-3.7405,6.1145,-11.4962
0.9778,0.1411,-0.1638,-4.0382,5.145,-11.5573
0.9597,0.1396,-0.1704,-4.229,3.9695,-11.1298
0.9604,0.1284,-0.1528,-4.3282,2.5878,-10.8779
0.9473,0.1274,-0.1431,-4.313,1.5496,-10.4046
0.9387,0.1248,-0.1414,-4.229,0.313,-10.2137
0.9299,0.1326,-0.136,-3.8015,-0.6183,-9.4809
0.9363,0.1274,-0.115,-3.4046,-1.6183,-9.0763
0.9182,0.1277,-0.1101,-3.2061,-2.5115,-8.1908
0.9175,0.1245,-0.1038,-2.5038,-3.458,-7.4046
0.9133,0.1304,-0.1047,-1.5954,-4.1985,-6.3511
0.9133,0.125,-0.1035,-0.6183,-5.0076,-5.3435
0.9126,0.127,-0.1016,0.5344,-5.5115,-4.3511
0.9111,0.1279,-0.1096,1.5115,-6.3053,-3.1527
0.9033,0.126,-0.0957,2.4885,-6.542,-2.1603
0.9089,0.1267,-0.0999,3.8626,-6.9542,-0.7023
0.9133,0.1235,-0.1025,4.8244,-7.5344,0.4656
0.9229,0.1284,-0.1125,6.1603,-7.6641,2.0534
0.9229,0.135,-0.1123,7.3664,-7.9618,2.916
0.926,0.1353,-0.1184,8.542,-8.1374,4.2519
0.9443,0.1379,-0.127,9.5725,-8.1374,5.6336
0.9541,0.1438,-0.1313,10.6947,-7.9924,6.9618
0.9648,0.1409,-0.1431,11.3817,-7.4733,8.1145
0.9724,0.1426,-0.1533,12.0,-7.0,9.0611
0.9875,0.1443,-0.1675,12.5649,-6.2672,9.9008
1.0002,0.1492,-0.1763,12.6565,-5.5496,10.3893
1.0042,0.1509,-0.177,12.5878,-4.6031,10.9924
1.0278,0.1619,-0.187,12.9695,-3.6489,11.5038
1.0415,0.1511,-0.199,12.9618,-2.5649,11.7405
1.0486,0.1619,-0.1997,12.6718,-1.458,11.8855
1.0522,0.1616,-0.2058,12.6183,-0.3969,11.7557
1.062,0.1665,-0.2036,12.3664,0.5115,11.7863
1.0659,0.1658,-0.2229,11.9695,1.7023,11.2748
1.0798,0.1707,-0.2222,11.6183,2.8855,10.9847
1.0864,0.1707,-0.2256,11.1221,3.9313,10.1908
1.0981,0.1687,-0.228,10.6412,5.0076,9.7176
1.0986,0.1731,-0.2285,10.0305,6.1221,9.4046
1.1042,0.1714,-0.2283,9.4198,6.9008,8.3359
1.1084,0.176,-0.2278,8.7481,7.8626,7.4809
1.1116,0.168,-0.2187,7.8473,8.542,6.5115
1.1104,0.1697,-0.2241,7.2443,9.0305,5.0763
1.1135,0.1709,-0.2314,6.542,9.458,4.0763
1.1055,0.1716,-0.2239,5.6412,9.9618,3.229
1.1099,0.1621,-0.2246,4.916,9.9237,2.0229
1.0994,0.1682,-0.2307,4.1832,10.1908,1.1603
1.0981,0.1672,-0.2319,3.2824,10.1908,-0.0382
1.0881,0.1611,-0.2334,2.5267,10.1221,-0.9695
1.0847,0.1689,-0.2288,1.7863,9.8244,-1.9695
1.0815,0.1697,-0.2197,0.8321,9.5267,-2.9313
1.0693,0.1689,-0.2224,0.2214,9.0611,-3.5344
1.0601,0.1643,-0.2063,-0.687,8.5573,-4.4733
1.0549,0.1672,-0.2024,-1.4122,7.9695,-4.8473
1.0396,0.1653,-0.199,-2.1985,7.3206,-5.3206
1.0271,0.1616,-0.1902,-2.8321,6.2366,-5.7176
1.0205,0.158,-0.1816,-3.2901,5.2519,-5.8779
1.0076,0.1628,-0.1809,-3.5954,3.9695,-6.1756
