ax,ay,az,gx,gy,gz
1.4097,-0.2637,-0.3442,-34.687,10.3053,52.4275
1.4485,-0.2515,-0.353,-33.8015,11.0763,51.1832
1.4851,-0.241,-0.3657,-32.5038,11.687,50.0382
1.53,-0.2505,-0.3889,-31.3435,12.6794,48.6336
1.5735,-0.2473,-0.4177,-30.1985,13.9847,47.1221
1.5942,-0.2517,-0.439,-29.3893,16.3282,45.687
1.6526,-0.2485,-0.468,-28.6947,18.7176,43.7939
1.6853,-0.2466,-0.4878,-28.8244,21.4198,41.8168
1.7197,-0.2339,-0.5195,-29.3053,24.4427,39.374
1.7581,-0.2166,-0.5415,-30.1145,27.687,36.4198
1.7893,-0.2048,-0.5632,-31.4275,31.145,33.5496
1.8259,-0.2078,-0.5845,-34.0076,36.2748,28.7405
1.8682,-0.2029,-0.5937,-36.7557,40.2672,25.0076
1.8887,-0.2004,-0.6064,-39.4504,44.3969,20.6718
1.9028,-0.1777,-0.615,-42.5649,48.0763,16.4809
1.926,-0.1633,-0.6101,-45.4275,51.5573,11.9466
1.9316,-0.1528,-0.6062,-48.4809,54.6565,6.9771
1.9395,-0.1543,-0.6021,-52.0076,57.4885,1.7176
1.9373,-0.1526,-0.6072,-55.8626,60.2366,-3.5267
1.936,-0.158,-0.6101,-59.3664,62.3817,-8.313
1.9421,-0.1624,-0.6001,-63.7176,65.4809,-14.0534
1.9285,-0.1611,-0.5833,-67.2977,67.7252,-18.9542
1.9026,-0.1602,-0.5654,-70.855,69.7099,-24.0763
1.8894,-0.1565,-0.5308,-74.4657,71.2824,-28.7405
1.8745,-0.1575,-0.5212,-77.8855,72.2137,-33.0763
1.8506,-0.1577,-0.4822,-81.0382,72.6794,-36.9542
1.8318,-0.156,-0.4668,-83.8473,72.8702,-40.8855
1.8071,-0.1572,-0.439,-86.7328,72.1832,-44.2519
1.8008,-0.1567,-0.4238,-89.2519,71.3969,-46.8702
1.8,-0.1492,-0.4128,-92.4809,70.1298,-50.0305
1.7974,-0.1519,-0.3984,-95.3359,68.3817,-52.4733
1.8113,-0.145,-0.3938,-98.0687,66.4427,-55.4275
1.8323,-0.1404,-0.3987,-101.4504,64.5802,-58.2443
1.8545,-0.1245,-0.3928,-104.9084,62.0,-61.0992
1.8889,-0.115,-0.3865,-108.9008,59.5115,-64.1145
1.9126,-0.1179,-0.3838,-113.2672,56.7252,-68.4427
1.9575,-0.1113,-0.3818,-118.1069,54.5878,-73.3664
1.9634,-0.1125,-0.3853,-123.3435,52.7099,-79.7328
1.9866,-0.1169,-0.3848,-128.8244,50.9313,-86.8168
1.9999,-0.1301,-0.3784,-134.3664,48.9008,-94.9695
1.9999,-0.1326,-0.3833,-140.458,47.1527,-102.8702
1.9999,-0.1367,-0.365,-146.687,45.0916,-112.2137
1.9999,-0.1404,-0.3562,-152.916,42.6031,-121.0687
1.9973,-0.1436,-0.3396,-159.3282,39.7863,-129.6641
1.9792,-0.1448,-0.3101,-165.7405,35.916,-137.6947
1.9729,-0.1431,-0.3008,-172.1985,31.0153,-145.2977
1.9526,-0.1536,-0.2896,-178.6336,25.4046,-151.8397
1.9324,-0.1472,-0.2466,-185.229,19.0763,-158.3435
1.918,-0.1426,-0.218,-191.9389,12.1374,-164.2748
1.8889,-0.1448,-0.1855,-198.5114,5.0763,-169.7481
1.8938,-0.1531,-0.1343,-204.8931,-2.0153,-175.2366
1.8782,-0.1794,-0.1045,-211.3588,-10.0076,-180.3969
1.8806,-0.2041,-0.0759,-217.6183,-17.5267,-185.3512
1.8821,-0.2124,-0.0574,-223.6183,-24.8092,-190.2824
1.896,-0.231,-0.0029,-229.5573,-32.5878,-195.6641
1.9155,-0.2505,0.0496,-234.5954,-39.6718,-200.9924
1.9399,-0.2634,0.0986,-239.4809,-46.8244,-206.0076
1.9763,-0.2771,0.1555,-243.5496,-53.7939,-211.5954
1.9999,-0.2964,0.2192,-246.8855,-59.9695,-217.0687
1.9999,-0.312,0.2554,-249.6641,-65.7252,-223.1145
1.9999,-0.3381,0.3018,-250.1374,-69.6336,-229.4657
1.9999,-0.3496,0.3179,-250.1374,-72.3053,-235.5114
1.9999,-0.3867,0.3621,-250.1374,-74.229,-243.0992
1.9999,-0.4211,0.3904,-250.1374,-74.0916,-250.1374
1.9999,-0.4631,0.4214,-250.1374,-73.2061,-250.1374
1.9999,-0.4897,0.4478,-250.1374,-71.2595,-250.1374
1.9999,-0.511,0.4875,-250.1374,-68.0382,-250.1374
1.9999,-0.5315,0.5042,-250.1374,-63.855,-250.1374
1.9999,-0.5603,0.5134,-247.9237,-58.4809,-250.1374
1.9999,-0.593,0.5146,-244.7634,-51.7863,-250.1374
1.9999,-0.5991,0.5032,-241.3053,-43.2214,-250.1374
1.9999,-0.6099,0.4995,-237.4351,-33.2061,-250.1374
1.9999,-0.6199,0.4978,-233.4046,-22.5878,-250.1374
1.9999,-0.6409,0.4895,-228.7939,-11.5191,-250.1374
1.9999,-0.665,0.4744,-224.2824,0.1756,-250.1374
1.9999,-0.6875,0.4802,-219.8321,11.3588,-250.1374
1.9999,-0.7031,0.469,-215.6336,22.5267,-250.1374
1.9999,-0.7185,0.4839,-211.7176,32.8779,-250.1374
1.9999,-0.7266,0.4917,-207.916,42.6412,-250.1374
1.9999,-0.7302,0.5129,-204.4122,51.8397,-250.1374
1.9999,-0.7222,0.5432,-201.6565,59.5267,-250.1374
1.9999,-0.7256,0.5864,-198.8244,65.4657,-250.1374
1.9617,-0.7207,0.6436,-196.1756,69.6336,-250.1374
1.8628,-0.7234,0.6921,-192.626,72.6183,-250.1374
1.7358,-0.7351,0.7861,-189.0458,73.626,-250.1374
1.6855,-0.7336,0.8164,-186.2519,72.8931,-250.1374
1.6016,-0.7297,0.8787,-182.3817,70.7939,-250.1374
1.5237,-0.7241,0.9312,-178.3512,67.5573,-250.1374
1.4604,-0.6973,0.9866,-173.7786,63.4656,-250.1374
1.4045,-0.6633,1.0469,-168.4198,58.7786,-250.1374
1.3804,-0.6479,1.0486,-161.9847,54.4046,-250.1374
1.3435,-0.6431,1.0884,-154.5114,49.1603,-250.1374
1.3308,-0.636,1.1152,-147.1603,44.0687,-250.1374
1.3152,-0.6436,1.1365,-140.1985,40.2061,-250.1374
1.3027,-0.6475,1.1558,-132.9618,36.6565,-250.1374
1.3081,-0.6653,1.1643,-125.8244,34.374,-250.1374
1.3098,-0.6504,1.1699,-118.626,33.3511,-250.1374
1.3298,-0.6411,1.1768,-110.8397,33.7481,-250.1374
1.3438,-0.6257,1.1719,-103.3969,34.9618,-250.1374
1.365,-0.6099,1.1797,-95.5115,37.3664,-250.1374
1.3782,-0.5833,1.1768,-87.8397,40.9389,-250.1374
1.3948,-0.5642,1.1873,-79.8931,44.687,-250.1374
1.3936,-0.5588,1.1895,-71.8473,49.1374,-250.1374
1.3909,-0.5474,1.1948,-63.8015,54.0687,-250.1374
1.3872,-0.5386,1.2007,-55.4427,58.4809,-250.1374
1.3748,-0.5244,1.1995,-47.229,62.7328,-250.1374
1.3589,-0.5229,1.1965,-38.5878,66.7557,-250.1374
1.3374,-0.5122,1.1968,-30.6489,70.4733,-250.1374
1.3091,-0.4963,1.2043,-22.8244,73.3511,-250.1374
1.2729,-0.4839,1.1855,-15.0534,75.6641,-250.1374
1.2527,-0.4836,1.1807,-8.0992,77.5496,-250.1374
1.2109,-0.4722,1.1829,-0.1221,78.626,-250.1374
1.1692,-0.4583,1.1831,7.0153,79.2366,-250.1374
1.1226,-0.4365,1.1777,13.5344,79.9618,-250.1374
1.0769,-0.4292,1.1563,20.0534,80.145,-250.1374
1.0313,-0.4126,1.1357,26.1756,80.3664,-250.1374
0.9878,-0.4131,1.1165,32.3511,80.0687,-250.1374
0.9526,-0.3904,1.0864,38.5725,79.9237,-250.1374
0.926,-0.3877,1.0723,44.1221,79.6718,-250.1374
0.8699,-0.3628,1.0205,52.5496,78.7252,-250.1374
0.8372,-0.3457,0.9854,58.3664,78.7023,-250.1374
0.791,-0.3247,0.9622,64.1374,78.9466,-250.1374
0.7595,-0.2957,0.9302,69.6107,79.542,-250.1374
0.74,-0.2808,0.9131,74.7863,80.1985,-250.1374
0.7056,-0.2456,0.8843,79.5191,81.0992,-250.1374
0.6709,-0.2173,0.8701,84.0305,81.8855,-250.1374
0.6365,-0.178,0.842,88.0916,83.1069,-250.1374
0.6055,-0.1492,0.8252,92.0763,83.9008,-250.1374
0.5833,-0.1279,0.8005,95.6031,84.7023,-250.1374
0.5588,-0.1079,0.7764,98.7939,85.6107,-250.1374
0.5364,-0.0835,0.7429,101.6412,86.6947,-250.1374
0.5188,-0.0674,0.707,104.3206,87.5878,-250.1374
0.5205,-0.0642,0.6909,106.5496,89.313,-250.1374
0.5005,-0.0554,0.6658,108.7405,91.4962,-250.1374
0.4846,-0.0405,0.6462,110.9084,93.6718,-250.1374
0.468,-0.0298,0.6167,112.5496,95.7176,-250.1374
0.4553,-0.0173,0.5901,114.3206,98.145,-250.1374
0.4417,-0.0066,0.5876,116.4198,100.6947,-250.1374
0.4241,-0.0032,0.5823,116.8244,102.6794,-250.1374
0.4148,0.0042,0.552,119.6641,105.0153,-250.1374
0.4087,0.0139,0.5583,121.145,107.2137,-250.1374
0.3962,0.0149,0.533,122.084,110.4122,-250.1374
0.3865,0.0132,0.5193,126.0534,113.6336,-250.1374
0.3721,0.0017,0.5024,128.4351,117.1069,-250.1374
0.3528,-0.0081,0.4888,130.9695,120.5343,-250.1374
0.3323,0.001,0.4875,133.3512,124.1069,-250.1374
0.3059,0.0037,0.4814,136.3588,127.4122,-250.1374
0.2783,0.0044,0.4797,138.9008,130.8015,-250.1374
0.2512,0.0059,0.4829,141.6718,134.0687,-250.1374
0.2361,0.0012,0.48,144.7939,136.8931,-250.1374
0.2068,0.0042,0.491,147.8397,139.4657,-250.1374
0.1748,0.0022,0.4912,150.9466,141.7328,-250.1374
0.1497,0.0017,0.4988,154.2977,143.6107,-250.1374
0.1184,0.0012,0.4878,157.7863,145.3359,-250.1374
0.094,0.0002,0.491,161.5725,146.0916,-250.1374
0.0828,-0.0161,0.4932,165.4733,146.1832,-248.4809
0.063,-0.0215,0.4709,169.374,145.9542,-242.7328
0.0547,-0.032,0.4731,173.5802,145.1298,-237.0611
0.0435,-0.0466,0.457,178.2366,143.9847,-231.0763
0.0325,-0.0491,0.4417,182.2214,142.9695,-225.3282
0.0195,-0.0552,0.4368,186.6718,142.0992,-219.771
0.0198,-0.0566,0.4177,191.1908,140.771,-214.6794
0.0139,-0.0461,0.4121,195.5725,139.5954,-210.0916
0.0088,-0.0354,0.3984,199.6336,138.1603,-205.5191
0.001,-0.0276,0.3906,203.6488,136.4122,-201.5573
0.0015,-0.0288,0.376,207.4886,134.855,-198.5343
-0.0088,-0.0342,0.3704,211.084,132.8321,-195.0076
-0.009,-0.043,0.344,214.2901,131.1298,-192.084
-0.0134,-0.033,0.3262,217.229,129.3817,-189.2519
-0.0242,-0.0325,0.3159,220.0611,128.3664,-186.7634
-0.0376,-0.0225,0.3013,222.5954,127.1985,-183.855
-0.0417,-0.0183,0.2864,225.2748,126.5343,-181.1832
-0.0525,-0.0144,0.2603,227.5267,126.542,-178.3282
-0.0798,-0.0112,0.2432,230.1527,128.2061,-174.9008
-0.092,-0.0039,0.2231,232.3435,130.5038,-172.0
-0.1184,-0.0034,0.1904,234.5038,132.8397,-168.5954
-0.1411,-0.0107,0.187,236.6641,134.9771,-165.0534
-0.1577,-0.0112,0.1726,238.7023,137.1832,-161.4886
-0.1919,-0.012,0.1636,240.6488,139.6336,-157.1985
-0.22,-0.0186,0.1482,242.7939,141.5267,-152.084
-0.259,-0.0142,0.1331,245.0153,143.374,-146.9084
-0.2886,-0.0161,0.1233,247.0229,144.6718,-141.0611
-0.3232,-0.03,0.095,249.2901,145.5267,-134.3282
-0.3579,-0.0259,0.0852,250.1298,146.374,-127.5496
-0.3821,-0.0227,0.0715,250.1298,147.1069,-120.7939
-0.4099,-0.02,0.0583,250.1298,147.8779,-112.4504
-0.4255,-0.0112,0.0415,250.1298,149.458,-105.229
-0.458,-0.0078,0.0251,250.1298,150.8244,-97.1527
-0.4795,-0.0093,0.0129,250.1298,152.4886,-89.5573
-0.5227,-0.0081,-0.0051,250.1298,154.3893,-81.8092
-0.5581,0.0034,-0.019,250.1298,156.2595,-73.4657
-0.5852,0.0198,-0.0288,250.1298,157.7481,-65.2214
-0.6179,0.0337,-0.0344,250.1298,159.374,-56.3969
-0.6514,0.0425,-0.052,250.1298,160.6183,-47.458
-0.6611,0.0427,-0.0598,250.1298,161.6947,-38.8931
-0.6914,0.0522,-0.0774,250.1298,162.4657,-28.7328
-0.7234,0.0605,-0.0942,250.1298,162.8779,-18.855
-0.7383,0.0693,-0.1118,250.1298,162.5573,-8.5954
-0.7588,0.0684,-0.127,250.1298,161.9695,1.4427
-0.7654,0.0684,-0.146,250.1298,160.6565,11.5649
-0.7769,0.0791,-0.1716,250.1298,158.9313,22.0763
-0.7732,0.0642,-0.1804,250.1298,156.8855,32.4962
-0.771,0.0684,-0.2034,250.1298,154.4427,42.4504
-0.7673,0.0632,-0.2146,250.1298,151.4657,52.6107
-0.7419,0.0488,-0.2437,250.1298,148.4122,62.5573
-0.7117,0.0378,-0.2549,250.1298,144.7786,72.1603
-0.6792,0.0286,-0.2698,250.1298,140.8015,81.2137
-0.6436,0.01,-0.3042,250.1298,136.1298,90.1374
-0.5989,-0.0073,-0.342,250.1298,130.5954,98.1603
-0.5503,-0.0308,-0.373,250.1298,124.5878,105.6412
-0.4968,-0.0408,-0.3816,250.1298,117.9924,112.9847
-0.4773,-0.0496,-0.395,250.1298,110.3588,118.9924
-0.4146,-0.0508,-0.4346,250.1298,102.7176,124.5343
-0.3604,-0.0725,-0.459,250.1298,95.3893,128.6336
-0.3018,-0.093,-0.4841,250.1298,87.6718,131.7252
-0.2505,-0.105,-0.5242,250.1298,80.5954,133.6183
-0.1887,-0.1077,-0.5422,250.1298,73.8931,134.9542
-0.1306,-0.1055,-0.5767,250.1298,67.6565,135.2901
-0.0696,-0.095,-0.6094,250.1298,61.7634,134.3969
-0.043,-0.0896,-0.627,250.1298,56.8702,133.0763
0.0,-0.0806,-0.6523,250.1298,51.5802,130.4962
0.052,-0.073,-0.6619,250.1298,47.3206,127.4198
0.0906,-0.0596,-0.6873,250.1298,43.7252,123.4427
0.1267,-0.0574,-0.7036,249.3435,40.0763,119.1908
0.1606,-0.0522,-0.7349,247.0382,37.3206,114.3817
0.1853,-0.0444,-0.7529,244.1679,34.855,109.313
0.2063,-0.0469,-0.7676,241.6641,33.1298,104.5343
0.2156,-0.0532,-0.8057,238.7863,32.8015,100.2061
0.2244,-0.0432,-0.8171,235.2824,33.3435,95.2977
0.2231,-0.0376,-0.834,231.9542,35.1985,91.8015
0.2222,-0.0168,-0.8508,229.2901,38.0076,89.7252
0.2065,0.0059,-0.8774,227.0458,41.3359,88.1374
0.1914,0.0188,-0.8821,225.0076,46.0382,88.1527
0.1758,0.0295,-0.895,223.0076,51.5267,88.9237
0.1577,0.0422,-0.9038,221.4351,58.0992,90.4122
0.145,0.0413,-0.8982,220.3053,64.4427,92.9237
0.1279,0.0527,-0.9177,219.2137,72.313,96.9237
0.1165,0.0503,-0.9197,218.2443,79.6489,101.0687
0.0991,0.0547,-0.9287,217.5343,87.855,106.1527
0.0881,0.0562,-0.9504,217.0687,96.3588,112.0229
0.0781,0.0461,-0.9551,216.6412,104.8473,117.8397
0.0625,0.0513,-0.969,216.5573,113.5954,123.8702
0.0498,0.0535,-0.959,216.3893,122.4046,130.4962
0.0393,0.0588,-0.9504,216.2901,129.8397,136.8168
0.03,0.0559,-0.9377,216.5573,135.9695,142.6183
0.0144,0.0815,-0.9487,216.7786,141.6718,149.0076
0.0037,0.0823,-0.9441,217.1679,145.2824,154.8321
-0.0112,0.0796,-0.9482,217.8779,147.8397,160.313
-0.022,0.0874,-0.9573,217.9542,148.2595,165.6947
-0.0259,0.0906,-0.9814,217.855,147.145,170.9847
-0.0291,0.0891,-1.0071,217.2137,145.5343,175.7328
-0.0227,0.0996,-1.0217,215.8321,142.4275,180.3512
-0.0205,0.0994,-1.0266,214.229,137.7176,184.8779
-0.0103,0.0984,-1.0527,212.0382,132.9695,188.9313
0.0115,0.1082,-1.0605,209.0,127.1221,192.7786
0.0361,0.1113,-1.0623,205.7252,120.855,196.1221
0.0559,0.1282,-1.0933,201.9389,114.687,199.1756
0.0859,0.1362,-1.1177,197.4351,109.1069,201.5878
0.1184,0.1406,-1.1245,192.9313,103.6183,203.7481
0.1543,0.1396,-1.1575,188.0763,98.4275,205.2519
0.187,0.1421,-1.1655,183.0611,93.1145,206.6488
0.1985,0.1467,-1.1875,177.9313,87.6718,207.6565
0.2246,0.1458,-1.1892,172.5573,81.9313,208.1221
0.2563,0.1477,-1.2117,167.3053,76.3359,208.1985
0.2852,0.1482,-1.2312,161.7634,70.9389,207.6718
0.3096,0.1614,-1.2429,156.5573,65.9618,207.1527
0.3357,0.1726,-1.2656,151.084,61.4733,206.7023
0.355,0.1768,-1.2634,145.2977,57.5191,205.9389
0.3826,0.1873,-1.2847,139.9695,53.8244,205.3053
0.3889,0.1843,-1.2773,134.3817,50.4809,204.7023
0.4099,0.1909,-1.2859,129.0458,47.8168,204.1985
0.4272,0.1956,-1.303,123.9618,46.2214,203.5725
0.45,0.2004,-1.3054,118.6565,45.4733,203.3435
0.4683,0.1987,-1.3086,113.3282,45.4427,203.4122
0.479,0.2021,-1.3188,108.1374,46.1069,203.9771
0.4976,0.2021,-1.3142,103.3053,47.7252,204.5954
0.5154,0.1987,-1.3062,98.4351,49.7023,205.6031
0.5173,0.1946,-1.3037,94.0076,52.458,206.8092
0.5291,0.178,-1.3064,89.7023,56.4962,208.5649
0.5442,0.179,-1.3015,85.4046,60.1069,210.4198
0.5613,0.176,-1.2932,81.7481,64.8321,212.7023
0.5659,0.186,-1.2793,78.7176,69.771,214.9695
0.583,0.1855,-1.2512,75.0458,76.6947,218.3053
0.5916,0.1943,-1.2229,72.5802,82.5878,220.4962
0.6023,0.2,-1.231,70.4809,89.8015,223.0305
0.603,0.2009,-1.2197,68.6489,97.9008,225.5649
0.6025,0.1968,-1.2056,67.3588,106.2366,227.8244
0.5959,0.2002,-1.1797,66.4885,115.0687,230.1756
0.5864,0.2029,-1.1641,64.9771,123.2901,232.2366
0.5696,0.196,-1.1448,63.5573,131.0611,235.2672
0.5596,0.1926,-1.1309,62.4885,138.2748,238.0153
0.5461,0.1807,-1.0935,60.7252,144.8397,241.3664
0.53,0.176,-1.0637,59.1603,150.6718,245.0
0.5188,0.1628,-1.0286,57.6107,155.4886,248.9237
0.4985,0.1418,-1.0005,55.6183,159.2977,250.1298
0.4961,0.1257,-0.9602,53.5725,161.6794,250.1298
0.4968,0.1062,-0.9253,51.6641,161.6794,250.1298
0.5139,0.0898,-0.8945,50.0458,159.6031,250.1298
0.5361,0.0649,-0.8657,48.7634,154.8855,250.1298
0.5552,0.0603,-0.8635,47.6794,148.2366,250.1298
0.5952,0.0525,-0.8423,46.4885,140.2901,250.1298
0.6367,0.0522,-0.8376,46.0382,131.5725,250.1298
0.6804,0.0552,-0.8328,45.3664,122.1603,250.1298
0.7271,0.0723,-0.8259,44.7099,113.2061,250.1298
0.7756,0.0742,-0.8416,43.9924,103.6412,250.1298
0.8167,0.0801,-0.8491,42.8702,95.145,250.1298
0.8538,0.0874,-0.8638,41.313,87.1908,250.1298
0.8687,0.0945,-0.8718,39.4351,79.6565,250.1298
0.8994,0.0996,-0.8928,37.2061,71.2443,250.1298
0.9077,0.0986,-0.9197,34.2824,63.4504,249.2137
0.9216,0.1077,-0.9309,31.1985,56.4046,243.9695
0.9248,0.1233,-0.9507,27.3893,49.7023,238.9771
0.9211,0.1401,-0.9692,22.9847,44.0,234.6718
0.9233,0.1553,-0.9941,18.2901,39.8931,230.8092
0.9104,0.1687,-1.0164,13.3206,36.687,228.1832
0.9089,0.1814,-1.022,8.5267,35.0153,226.1908
0.9026,0.2068,-1.0369,2.7786,33.9847,225.0534
0.8916,0.2241,-1.0334,-2.8397,34.1145,225.1221
0.8835,0.2273,-1.0452,-8.0763,35.0229,225.7176
0.8823,0.2332,-1.0544,-13.7405,37.6183,227.6488
0.8823,0.231,-1.054,-18.7023,40.6947,230.145
0.8772,0.2266,-1.0383,-23.4122,44.5191,233.3282
0.8804,0.22,-1.0227,-27.8321,49.0153,237.2366
0.8809,0.2095,-1.0032,-31.8779,53.855,241.4504
0.8909,0.197,-0.9929,-35.3588,59.3969,245.6947
0.8877,0.1895,-0.9785,-38.9084,65.1298,250.0916
0.8953,0.166,-0.9551,-41.3969,71.4427,250.1298
0.9011,0.1511,-0.9128,-43.6031,77.3893,250.1298
0.9136,0.134,-0.8894,-45.6565,83.0534,250.1298
0.9248,0.1064,-0.8503,-47.0763,88.1374,250.1298
0.9351,0.0808,-0.8206,-48.4809,92.2595,250.1298
0.9448,0.0525,-0.7966,-49.5573,96.1221,250.1298
0.959,0.0454,-0.7891,-50.2137,98.0992,250.1298
0.9685,0.0171,-0.7629,-50.4504,99.458,250.1298
0.9985,-0.0046,-0.7422,-51.0,100.4733,250.1298
1.0237,-0.0222,-0.7231,-50.9771,101.1298,250.1298
1.0542,-0.0278,-0.7041,-50.8931,100.8779,250.1298
1.0898,-0.0337,-0.6958,-50.7252,100.2443,250.1298
1.1299,-0.0303,-0.6951,-50.3511,99.1985,250.1298
1.1616,-0.0247,-0.7029,-49.8931,97.5038,250.1298
1.2012,-0.0286,-0.7,-49.3359,95.5343,250.1298
1.2512,-0.0405,-0.7009,-49.7099,92.6718,250.1298
1.3027,-0.0452,-0.6958,-50.374,88.1298,250.1298
1.3564,-0.0398,-0.7002,-51.5725,81.7023,250.1298
1.4167,-0.0295,-0.7151,-53.0,74.9466,250.1298
1.4441,-0.0271,-0.7256,-54.7405,67.7023,250.1298
1.5085,-0.002,-0.7595,-57.1527,61.0382,250.1298
1.575,0.0061,-0.812,-59.6336,55.6183,250.1298
1.6436,0.0247,-0.8582,-63.0305,51.4962,250.1298
1.7036,0.0483,-0.9097,-67.0534,48.9695,246.313
1.7622,0.0698,-0.9507,-71.2901,48.313,238.4046
1.8042,0.0986,-1.0093,-76.0534,49.4122,230.7481
1.8411,0.1196,-1.063,-81.6794,53.145,222.8244
1.8494,0.1267,-1.0872,-87.7405,58.542,214.5343
1.8638,0.1438,-1.1296,-94.7252,66.3359,207.1374
1.8704,0.1509,-1.1575,-102.313,75.1908,200.1832
1.8547,0.1484,-1.1765,-110.3588,84.0,193.7252
1.8347,0.1462,-1.1794,-119.5802,93.8168,188.2672
1.7966,0.1482,-1.1584,-128.4962,102.8626,183.9771
1.7559,0.1421,-1.1145,-137.7176,111.9618,180.5038
1.7107,0.1306,-1.071,-146.8397,120.3969,177.771
1.687,0.1204,-1.0332,-155.1221,127.542,176.0229
1.6448,0.1064,-0.9658,-163.7405,134.7176,174.5954
1.6064,0.0823,-0.8943,-170.8702,140.2977,173.8397
1.5679,0.0564,-0.8203,-176.8244,145.3282,173.084
1.5334,0.0283,-0.7483,-181.6718,150.2214,172.9008
1.5002,-0.0061,-0.6592,-185.4504,153.8473,172.3893
1.4731,-0.0388,-0.5874,-188.1221,156.9466,171.542
1.4436,-0.0625,-0.502,-189.7328,159.1832,170.9237
1.4355,-0.0776,-0.4617,-190.4275,160.2443,170.1908
1.4202,-0.1089,-0.3804,-190.3893,160.1298,168.5802
1.3894,-0.1365,-0.3086,-189.6641,160.3817,167.4275
1.373,-0.1479,-0.238,-188.1221,159.7557,165.7786
1.3494,-0.1543,-0.1714,-185.8397,158.4046,164.1527
1.343,-0.1602,-0.1108,-182.8473,156.8015,163.0076
1.335,-0.1631,-0.0398,-179.7328,154.8015,161.9084
1.3335,-0.1716,0.0222,-175.7328,151.7023,160.6412
1.3293,-0.1863,0.0601,-171.4198,148.0992,159.4275
1.3242,-0.1907,0.0752,-166.6488,143.542,158.0611
1.3323,-0.2061,0.113,-161.8473,138.7328,156.4886
1.3425,-0.2129,0.1389,-156.6031,134.1069,154.7557
1.3457,-0.2244,0.1472,-151.3282,130.0916,152.8855
1.3538,-0.2231,0.1375,-145.6794,126.6718,150.6718
1.3689,-0.2195,0.1277,-140.0992,124.3664,148.4046
1.384,-0.2153,0.1331,-134.8015,122.0458,146.3053
1.394,-0.2246,0.116,-129.855,120.4198,144.687
1.3958,-0.2253,0.1089,-125.374,118.4885,142.6794
1.4077,-0.2141,0.0933,-121.0458,116.5802,141.0382
1.4219,-0.2017,0.0803,-117.542,114.1221,139.1985
1.4248,-0.189,0.0737,-114.1679,111.5649,137.3893
1.4375,-0.1851,0.0608,-110.7252,108.5878,134.5573
1.4485,-0.1733,0.0403,-108.626,105.7023,131.6565
1.4521,-0.1648,0.0244,-107.1603,103.3206,128.7328
1.4587,-0.157,-0.0046,-106.1527,101.4504,125.4198
1.449,-0.1482,-0.0173,-105.8779,99.3206,122.5496
1.4426,-0.1221,-0.0161,-106.0687,97.0153,119.1908
1.427,-0.1018,-0.0112,-106.3969,94.3664,116.229
1.4092,-0.0908,-0.0042,-107.1756,91.1374,113.2672
1.4014,-0.0813,-0.0044,-107.9618,87.8473,110.8244
1.3943,-0.0652,0.0071,-109.2901,83.2214,108.4198
1.3823,-0.0586,0.0029,-110.1374,77.9237,106.6107
1.375,-0.0525,0.0144,-111.1298,71.9313,105.0305
1.3728,-0.0469,0.0327,-111.9008,65.6565,103.1298
1.3772,-0.0405,0.0283,-112.7099,58.9313,101.8092
1.3813,-0.0449,0.0276,-113.7023,52.2137,100.1298
1.3916,-0.031,0.0386,-114.5954,46.2137,98.0382
1.4055,-0.0293,0.0334,-115.3282,40.084,95.7481
1.4172,-0.0264,0.0232,-116.0992,34.626,93.4809
1.4299,-0.0293,0.0178,-116.8321,29.4427,91.0458
1.4336,-0.0359,0.0225,-117.7252,24.6565,88.4275
1.448,-0.0374,0.0125,-118.7252,19.9695,85.9847
1.4619,-0.0439,0.0259,-119.4885,16.2061,83.229
1.4646,-0.0449,0.0227,-120.4733,12.3511,80.9618
1.4783,-0.0437,0.0237,-121.5115,8.5878,78.9618
1.5007,-0.0454,0.0291,-122.1756,5.4656,76.7939
1.5024,-0.0476,0.0349,-122.9389,2.1527,74.5496
1.509,-0.051,0.03,-123.771,-0.8015,72.6565
1.5264,-0.0615,0.0352,-124.2824,-3.2137,70.8092
1.5449,-0.0703,0.0388,-124.626,-5.4504,68.5878
1.5601,-0.0801,0.0247,-124.916,-6.9466,66.2214
1.5757,-0.0937,0.0273,-124.7252,-7.8473,63.8397
1.5898,-0.104,0.0142,-124.6031,-8.3511,61.2977
1.6052,-0.1079,0.009,-124.1069,-7.8244,58.5344
1.6052,-0.1172,0.0098,-123.5573,-6.9542,56.3359
1.6138,-0.1182,0.0127,-123.0229,-5.6183,53.6565
1.6199,-0.1277,0.0071,-122.1985,-4.4122,51.2519
1.6135,-0.1396,0.0085,-121.8168,-3.1527,48.8626
1.6204,-0.1406,0.0088,-121.2061,-1.7481,46.7176
1.6084,-0.1541,0.0112,-120.4122,-0.2443,44.3893
1.6033,-0.1714,-0.0049,-119.5267,1.6565,42.8473
1.6074,-0.187,-0.0107,-118.7557,3.7176,41.1679
1.6023,-0.1902,-0.0002,-117.4962,6.229,39.7252
1.582,-0.2036,0.0054,-116.1603,8.626,38.2443
1.5757,-0.2119,0.0103,-114.9618,10.5649,36.9237
1.5688,-0.2144,0.0337,-113.3435,11.8397,35.6794
1.5588,-0.2146,0.0459,-111.9084,13.458,34.3359
1.5579,-0.2261,0.0608,-110.2977,14.4427,33.0458
1.5496,-0.2371,0.063,-108.3435,15.1908,31.5878
1.5505,-0.2373,0.0732,-106.1298,16.0992,30.1756
1.5486,-0.2495,0.0889,-104.145,16.9847,28.5878
1.5471,-0.2556,0.0874,-102.2061,17.542,26.8779
1.5371,-0.2634,0.0979,-99.7557,17.9466,25.313
1.5354,-0.2683,0.1125,-97.6641,18.1679,23.3435
1.531,-0.2671,0.1418,-95.6565,17.9313,21.3206
1.533,-0.2651,0.1492,-92.7939,17.4122,18.8244
1.5315,-0.2683,0.158,-90.3206,17.3511,16.9389
1.5273,-0.2668,0.1599,-87.9084,17.0153,14.6489
1.5234,-0.2637,0.1753,-85.6412,17.0763,12.4351
1.5181,-0.2676,0.1746,-83.1756,17.0763,10.5115
1.5132,-0.2771,0.1755,-80.6565,16.9695,8.6412
1.5078,-0.2703,0.1699,-78.1603,17.5267,6.5115
1.4917,-0.2759,0.1802,-75.9313,18.2366,4.771
1.4807,-0.2725,0.1841,-73.5878,18.6641,3.2672
1.4707,-0.2661,0.1885,-71.0076,18.9924,1.8855
1.4595,-0.2595,0.1948,-68.6489,19.7939,0.687
1.4453,-0.251,0.1951,-66.5802,19.8702,0.0763
1.4304,-0.2517,0.2002,-64.1832,20.0992,-0.7863
1.4197,-0.2434,0.1978,-62.3359,20.1298,-1.3817
1.4131,-0.2405,0.1963,-60.0153,20.0916,-1.9618
1.4019,-0.2407,0.1914,-57.9924,19.8092,-2.5802
1.4021,-0.2385,0.1975,-56.3206,19.2519,-3.2977
1.4011,-0.2351,0.2043,-54.313,18.7405,-3.9695
1.3948,-0.2278,0.1921,-52.5954,18.313,-4.8397
1.3889,-0.2212,0.1763,-51.2824,17.3511,-5.8702
1.3953,-0.2178,0.1758,-49.5344,16.4351,-7.374
1.4019,-0.2236,0.187,-48.0305,15.6718,-8.5344
1.4016,-0.218,0.1763,-46.9542,14.8168,-9.9924
1.406,-0.2112,0.1729,-45.4962,13.9008,-11.2595
1.4165,-0.2024,0.1704,-44.6565,12.771,-12.9084
1.4192,-0.2075,0.1631,-43.6718,11.7481,-14.7099
1.4302,-0.2061,0.1597,-42.7863,10.9618,-16.626
1.4404,-0.2119,0.1577,-41.8397,10.1832,-18.9924
1.4478,-0.2043,0.1599,-41.0076,9.7557,-21.0916
1.4624,-0.2073,0.1479,-39.9237,9.4046,-23.5344
1.467,-0.2048,0.1421,-39.0076,9.4275,-26.1603
1.4817,-0.2087,0.1431,-37.8855,9.4198,-28.9924
1.4744,-0.2161,0.1379,-36.8855,10.0153,-31.6489
1.4717,-0.2141,0.1204,-35.6794,10.8321,-35.1221
1.4651,-0.2124,0.1243,-34.3053,12.1298,-37.9389
1.4463,-0.2158,0.1091,-33.0534,13.687,-41.0458
1.4233,-0.2109,0.1091,-31.6794,15.8397,-43.7405
1.3801,-0.2053,0.0925,-30.0687,18.3359,-46.2214
1.3411,-0.2048,0.0803,-28.313,20.3817,-48.4885
1.2852,-0.1938,0.0645,-26.6336,22.626,-49.6489
1.2314,-0.1924,0.0537,-25.0153,24.3206,-50.0305
1.1711,-0.1782,0.05,-23.8702,25.5954,-49.9008
1.1504,-0.1707,0.0437,-22.9084,26.2214,-48.9847
1.1033,-0.1565,0.0432,-21.6565,26.145,-46.9847
1.0627,-0.1536,0.0364,-21.1985,25.6565,-45.0076
1.0195,-0.1326,0.0225,-20.6107,24.7939,-42.8092
1.0024,-0.1316,0.0103,-20.2824,23.4886,-40.0916
0.9758,-0.1262,-0.0081,-19.9237,22.9237,-37.0
0.9631,-0.1267,-0.0049,-19.7863,21.8244,-34.1908
0.9485,-0.1162,-0.0027,-19.4504,20.4122,-31.3053
0.9485,-0.1143,-0.0015,-19.4122,19.145,-28.9542
0.9426,-0.1121,-0.0029,-19.3817,17.4733,-26.2901
0.9492,-0.1138,-0.0063,-19.4198,15.7939,-24.0687
0.9443,-0.1084,-0.0042,-19.0763,13.8931,-22.4809
0.9644,-0.1111,0.0083,-19.2366,12.0229,-20.8779
0.9722,-0.1064,0.0054,-18.9313,9.9771,-19.4809
0.9944,-0.1003,0.0059,-18.4198,8.2519,-18.3969
1.0112,-0.1055,0.0098,-18.3206,6.8092,-18.1908
1.0266,-0.1035,0.0193,-17.6336,5.229,-17.8397
1.0547,-0.1016,0.0103,-17.145,4.3817,-18.0916
1.0732,-0.1013,0.0117,-16.4351,3.4656,-18.313
1.0923,-0.1023,0.0007,-15.8855,3.0153,-19.2137
1.1047,-0.1028,-0.0029,-15.2443,2.7252,-20.0458
1.1257,-0.0898,0.0007,-14.626,2.8473,-20.8321
1.1277,-0.0928,-0.0068,-14.145,2.8779,-22.0458
1.1428,-0.0964,-0.0112,-13.6183,3.374,-23.0534
1.1458,-0.0784,-0.0176,-13.4427,4.0305,-24.2443
1.1487,-0.0886,-0.0227,-12.8626,4.9466,-25.5267
1.1492,-0.0837,-0.0437,-12.6718,5.855,-26.7328
1.146,-0.0852,-0.0564,-12.4809,7.5344,-27.9008
1.1487,-0.0845,-0.0583,-12.2214,8.8931,-28.9771
1.1328,-0.084,-0.0564,-12.2748,10.1298,-29.9771
1.124,-0.083,-0.0603,-12.1145,11.4504,-30.7023
1.1208,-0.0857,-0.0693,-12.1145,12.2214,-31.2519
1.1023,-0.075,-0.0686,-11.9847,12.2824,-31.7939
1.0955,-0.0713,-0.0713,-11.8473,12.4733,-31.7099
1.0886,-0.0664,-0.0886,-11.9466,12.7786,-31.5725
1.0801,-0.0618,-0.0974,-12.2214,13.0534,-31.6947
1.0715,-0.064,-0.0898,-12.5267,13.0763,-31.8321
1.0659,-0.0625,-0.0994,-12.8397,13.229,-31.5038
1.064,-0.0593,-0.1038,-13.3206,13.3053,-31.4962
1.0637,-0.062,-0.1208,-13.7176,13.4275,-31.7176
1.0542,-0.0608,-0.1162,-14.4427,13.3435,-31.8244
1.051,-0.0564,-0.113,-14.7099,13.1221,-32.1985
1.042,-0.0593,-0.1194,-15.542,12.9695,-32.5038
1.0342,-0.0669,-0.1204,-15.8397,12.9695,-32.8931
1.0237,-0.062,-0.1348,-16.2901,13.2672,-32.8931
1.0193,-0.0571,-0.1289,-16.3664,13.6336,-33.4275
1.0051,-0.0591,-0.1309,-16.6412,14.1603,-33.6718
0.998,-0.0542,-0.1375,-16.771,14.4504,-33.626
0.9797,-0.0469,-0.1335,-16.7634,14.7099,-33.3053
0.959,-0.0442,-0.1201,-16.855,14.6031,-32.5802
0.9392,-0.0383,-0.1174,-16.7481,13.9542,-31.6794
0.9294,-0.0381,-0.1096,-16.7939,13.4122,-30.7939
0.9194,-0.0391,-0.1104,-16.8321,12.5496,-29.2214
0.9077,-0.0396,-0.106,-16.9771,11.3053,-27.687
0.905,-0.0544,-0.1089,-17.1908,10.145,-26.2901
0.9058,-0.0532,-0.1055,-17.4656,9.3664,-24.8931
0.9048,-0.052,-0.0991,-17.3969,8.7252,-23.3282
0.9058,-0.0398,-0.0957,-17.458,7.7786,-22.0153
0.908,-0.043,-0.0928,-17.1527,7.4046,-20.7557
0.9111,-0.043,-0.085,-17.0534,7.2137,-19.4275
0.918,-0.0479,-0.0808,-16.458,6.9466,-18.374
0.9202,-0.0522,-0.0784,-16.0153,7.1679,-17.5038
0.9351,-0.0493,-0.0842,-15.6947,7.0382,-16.7557
0.9351,-0.0535,-0.0681,-15.0153,7.5191,-15.7099
0.9429,-0.0552,-0.073,-14.2137,7.313,-14.7405
0.9541,-0.053,-0.0645,-13.6947,7.7481,-14.0992
0.9585,-0.0518,-0.073,-13.1679,7.6947,-13.3511
0.9612,-0.052,-0.0591,-12.4275,7.4656,-12.771
0.9739,-0.0464,-0.0615,-11.8473,7.5573,-12.1908
0.9773,-0.0549,-0.0483,-11.2824,7.313,-11.5496
0.9829,-0.0552,-0.0522,-10.626,7.2214,-11.3206
0.9873,-0.0518,-0.0588,-9.916,7.2595,-10.9847
0.9912,-0.051,-0.0469,-9.4733,7.2214,-10.8015
1.0002,-0.0505,-0.0469,-8.9847,7.0534,-11.0458
1.002,-0.0513,-0.051,-8.3664,6.916,-10.8321
1.0066,-0.0535,-0.0549,-7.9389,6.771,-10.8092
1.0105,-0.0457,-0.0557,-7.8473,6.4962,-11.0763
1.0105,-0.0442,-0.0496,-7.3359,5.8931,-11.145
1.0181,-0.0393,-0.0515,-6.9084,5.4275,-11.3588
1.0208,-0.0386,-0.0542,-6.6947,4.626,-11.6031
1.0156,-0.0366,-0.0583,-6.3282,4.0611,-11.7099
1.0293,-0.0391,-0.0579,-6.1985,3.9313,-12.0992
1.0281,-0.0432,-0.0498,-5.9466,3.5802,-12.458
1.0452,-0.0325,-0.0459,-5.7481,3.0992,-12.7099
1.0347,-0.0261,-0.053,-5.771,2.8244,-13.5344
1.0381,-0.0259,-0.0576,-5.9771,2.6183,-13.855
1.0344,-0.0269,-0.0679,-5.7634,2.626,-14.3511
1.0374,-0.02,-0.0696,-5.7557,2.3359,-15.0763
1.0349,-0.0212,-0.0664,-5.6947,2.0229,-15.4046
1.0359,-0.0227,-0.0681,-5.9542,1.9237,-15.7176
1.0349,-0.0222,-0.0635,-5.7023,1.7176,-16.0534
1.0286,-0.0132,-0.0737,-5.6336,1.6412,-16.4809
1.022,-0.0144,-0.0696,-5.5954,1.7786,-16.8015
1.0132,-0.0134,-0.0608,-5.542,1.7405,-16.8779
1.0112,-0.0095,-0.0586,-5.1756,1.9466,-16.5725
1.0056,-0.0076,-0.061,-4.8779,2.1145,-16.4427
1.0042,-0.002,-0.0686,-4.6641,2.5038,-15.9466
0.999,-0.001,-0.0649,-4.458,2.7557,-15.1603
0.9854,0.0027,-0.0715,-3.9771,3.3359,-14.5954
0.9866,0.0032,-0.0696,-3.542,3.7023,-13.8092
0.9805,0.0032,-0.0757,-3.313,4.0992,-13.2519
0.9822,0.0068,-0.0774,-2.9924,4.458,-12.542
0.981,-0.0037,-0.0757,-2.9618,4.626,-11.6641
0.9753,0.0022,-0.0789,-2.9771,4.8931,-11.0076
0.9768,0.009,-0.0828,-3.0382,4.9771,-9.9542
0.9749,0.0093,-0.084,-3.1069,5.0229,-9.6412
0.9685,0.0002,-0.0801,-3.2443,4.7863,-8.7939
0.9692,-0.0046,-0.0791,-3.1756,4.5115,-8.0
0.9646,-0.0051,-0.0745,-3.5267,4.4046,-7.3282
0.968,-0.0071,-0.0767,-3.4733,3.8015,-6.9389
0.9648,-0.0239,-0.0681,-3.3359,3.4504,-6.687
0.9724,-0.0254,-0.0627,-3.0458,3.0687,-5.7023
0.9717,-0.0244,-0.0686,-2.9618,2.5344,-5.3053
0.9739,-0.0278,-0.064,-2.5878,2.3435,-4.8855
0.9668,-0.0325,-0.0566,-2.2366,2.0992,-4.4733
0.9727,-0.0405,-0.0601,-1.7481,1.4351,-3.5725
0.9753,-0.0393,-0.053,-1.1985,0.7939,-2.916
0.979,-0.0425,-0.0625,-0.6947,0.4275,-2.2595
0.9875,-0.0376,-0.0554,0.0763,-0.2137,-1.6412
0.9773,-0.0422,-0.053,0.6412,-0.8321,-1.2061
0.9866,-0.0444,-0.052,1.3435,-1.3511,-0.7099
0.998,-0.0549,-0.052,2.3053,-2.0458,-0.2824
0.9998,-0.0498,-0.0439,3.0534,-2.687,0.374
1.0056,-0.062,-0.0532,3.687,-3.1679,0.7786
1.0146,-0.0486,-0.0464,4.5496,-3.9313,0.7557
1.0205,-0.0576,-0.0459,5.1603,-4.5115,0.855
1.0322,-0.0562,-0.0522,5.9466,-4.9313,0.8397
1.0366,-0.0537,-0.0588,6.4351,-5.5573,0.626
1.0444,-0.0583,-0.0566,6.9695,-5.7939,0.3282
1.0513,-0.0532,-0.0603,7.5191,-5.8168,0.4427
1.0613,-0.0513,-0.0708,7.8779,-5.8397,0.0611
1.0679,-0.0386,-0.0701,8.626,-5.7176,-0.3817
1.0737,-0.0366,-0.0789,8.8321,-5.0534,-0.8702
1.075,-0.0381,-0.085,9.3969,-4.7481,-0.9618
1.0793,-0.0356,-0.0742,9.374,-4.4198,-1.5191
1.0854,-0.0286,-0.0757,9.8321,-3.8626,-1.855
1.0889,-0.0283,-0.0913,10.1145,-3.4733,-2.2519
1.0918,-0.0242,-0.0798,10.2061,-2.7786,-2.5115
1.0908,-0.0227,-0.084,10.2672,-2.6336,-3.1527
1.0967,-0.0193,-0.0903,10.7328,-2.0382,-3.2748
1.0986,-0.0125,-0.0996,11.0153,-1.0458,-3.4656
1.0989,-0.0093,-0.1082,10.8626,-0.458,-3.6489
1.1013,-0.0022,-0.1208,10.8702,1.0534,-3.687
1.1038,0.0066,-0.1362,11.0916,3.1756,-3.8321
1.106,0.0022,-0.1453,10.9466,5.0382,-3.8626
1.0959,-0.0037,-0.1523,10.5573,7.3053,-3.8702
1.0903,0.0122,-0.1565,10.084,9.0763,-3.8855
1.0876,0.0112,-0.1477,9.6794,10.5496,-3.8702
1.0745,0.0129,-0.1492,9.1603,11.4351,-3.6641
1.0718,0.0132,-0.1458,8.1756,12.5038,-3.4885
1.0635,0.0186,-0.1467,7.4656,13.0916,-3.4122
1.0593,0.0127,-0.1382,6.6031,13.3664,-3.1985
1.0515,0.0178,-0.1343,5.7481,13.4962,-2.8244
1.041,0.0125,-0.1282,5.084,13.626,-2.8931
