ax,ay,az,gx,gy,gz
1.3657,-0.0623,-0.4434,-37.6489,4.2595,9.2137
1.3882,-0.0613,-0.4587,-39.6336,6.2366,7.9466
1.397,-0.0645,-0.4607,-41.9618,8.5802,6.8473
1.4036,-0.0576,-0.4832,-44.3588,10.8702,5.5954
1.4077,-0.0557,-0.4807,-46.6412,13.3282,3.916
1.4138,-0.051,-0.4856,-48.916,15.9084,2.4885
1.4255,-0.0491,-0.4924,-51.8168,18.5344,1.2214
1.4241,-0.0464,-0.4912,-54.374,21.1221,-0.0382
1.4207,-0.0461,-0.4883,-57.2214,23.5573,-0.8397
1.4226,-0.0457,-0.4778,-60.0916,25.7939,-2.0305
1.4229,-0.042,-0.4775,-63.1832,28.0687,-2.9695
1.4233,-0.0417,-0.469,-65.9618,30.2824,-4.2214
1.4185,-0.0457,-0.4578,-69.0687,31.8702,-5.0229
1.4089,-0.0488,-0.4468,-72.313,33.8397,-6.6031
1.4067,-0.0581,-0.4373,-74.8473,35.3206,-8.1679
1.4036,-0.0645,-0.4189,-77.4046,36.4122,-9.229
1.395,-0.0776,-0.3972,-79.7481,37.4046,-10.7557
1.3799,-0.0842,-0.3687,-81.9542,37.7786,-12.3817
1.3704,-0.0862,-0.3469,-83.8931,37.7634,-14.0076
1.3577,-0.0928,-0.3118,-85.8702,37.4885,-15.8779
1.343,-0.093,-0.2751,-87.313,36.2748,-17.4962
1.3257,-0.1013,-0.262,-88.7328,34.8397,-19.1527
1.3149,-0.0999,-0.2483,-90.1069,33.1679,-21.2901
1.2964,-0.1099,-0.2104,-91.4198,30.9847,-23.2977
1.2849,-0.123,-0.1758,-92.2672,28.6565,-24.8855
1.2668,-0.1265,-0.1414,-92.7557,26.2061,-27.0
1.2476,-0.137,-0.1099,-93.2595,24.0916,-28.7252
1.2275,-0.1536,-0.0906,-93.5802,21.8168,-30.7099
1.2144,-0.1614,-0.0728,-93.4733,18.9847,-31.9313
1.189,-0.1516,-0.0439,-93.2214,16.7405,-33.0076
1.1812,-0.1472,-0.0381,-92.6412,14.5115,-33.5878
1.1721,-0.1282,-0.0166,-92.1908,12.7939,-34.4809
1.1606,-0.1235,0.0117,-91.1832,11.1298,-34.7176
1.1587,-0.1187,0.0381,-90.2977,9.4198,-34.542
1.144,-0.1306,0.042,-89.313,8.3053,-34.4656
1.1389,-0.1328,0.0676,-88.6565,7.0687,-34.2366
1.1387,-0.1379,0.0906,-87.5038,6.1221,-34.084
1.146,-0.1384,0.0886,-86.1679,5.0916,-33.6641
1.1492,-0.1411,0.0967,-84.9771,4.855,-33.1832
1.1553,-0.1394,0.1035,-83.3664,4.6412,-33.0611
1.1633,-0.1418,0.1116,-81.7481,4.8473,-32.7176
1.1709,-0.1421,0.1152,-80.5343,5.4962,-32.3282
1.1902,-0.1399,0.1094,-79.1603,6.5267,-32.5802
1.1985,-0.1489,0.1118,-77.5496,7.7176,-32.4427
1.207,-0.1426,0.1177,-75.9466,9.0611,-32.4809
1.2217,-0.1443,0.1238,-74.1985,10.458,-32.9008
1.2341,-0.1523,0.1204,-72.7939,11.7634,-33.3817
1.2319,-0.1526,0.1238,-71.1374,13.0916,-33.7252
1.2476,-0.1516,0.123,-69.5343,14.3206,-34.1985
1.2598,-0.1501,0.1196,-68.0,15.2824,-35.0534
1.2727,-0.1414,0.1152,-66.145,15.8092,-35.626
1.2832,-0.1311,0.0903,-65.1221,16.1069,-36.4427
1.3,-0.1257,0.0674,-63.7252,16.626,-37.1908
1.3252,-0.1125,0.0435,-62.6565,17.4122,-37.9847
1.3469,-0.104,0.0171,-62.0153,17.8779,-38.9924
1.3586,-0.0964,-0.0027,-61.6336,18.6947,-40.1603
1.3794,-0.0774,-0.0288,-61.7405,19.9924,-41.5573
1.4038,-0.0593,-0.0593,-62.0916,21.7176,-43.0687
1.4214,-0.0579,-0.0808,-63.2366,23.7328,-45.0153
1.4453,-0.0505,-0.1035,-64.7023,24.9847,-47.2061
1.4614,-0.0525,-0.1221,-66.5573,26.3664,-49.5496
1.4797,-0.0537,-0.1338,-68.6489,27.3893,-52.4122
1.4954,-0.0486,-0.1531,-71.0229,27.7634,-55.5573
1.4966,-0.0442,-0.1653,-73.1069,27.5649,-58.5267
1.5063,-0.032,-0.1689,-75.6565,26.4886,-62.0229
1.5161,-0.0376,-0.177,-78.5954,24.7557,-65.7557
1.5198,-0.0322,-0.1873,-81.3511,22.4504,-69.6107
1.5244,-0.0464,-0.1821,-85.1679,18.8855,-74.8244
1.5256,-0.0457,-0.1978,-89.4962,15.145,-80.0153
1.5237,-0.0508,-0.2073,-93.8855,10.9542,-85.2137
1.5212,-0.041,-0.1921,-98.3893,6.9389,-90.2901
1.5107,-0.0386,-0.1838,-102.855,2.5725,-94.2443
1.5039,-0.0212,-0.1692,-107.4351,-2.0458,-99.0458
1.4988,-0.0103,-0.1631,-111.4657,-6.4809,-103.8244
1.4849,0.0039,-0.1448,-116.3053,-11.5878,-107.7481
1.4729,0.0181,-0.1257,-120.8015,-16.916,-111.7405
1.4692,0.0249,-0.1147,-124.9008,-22.1145,-115.3511
1.4578,0.0291,-0.0908,-129.0458,-27.2443,-118.8321
1.4465,0.0225,-0.082,-133.1527,-31.4504,-121.9771
1.4473,0.0225,-0.0657,-136.916,-35.5573,-124.5725
1.447,0.0056,-0.0422,-140.8092,-40.2214,-127.0076
1.4512,0.0132,-0.0334,-144.084,-44.0382,-129.229
1.4468,0.0059,-0.0244,-147.4962,-47.6107,-131.2748
1.4709,-0.0046,0.0066,-150.8092,-50.7481,-133.4351
1.4785,-0.0195,0.0186,-153.4122,-53.0458,-135.5191
1.4958,-0.0266,0.0459,-155.8473,-54.7863,-137.2366
1.5278,-0.0381,0.0681,-157.7405,-56.5878,-138.5191
1.5444,-0.0483,0.0688,-159.0763,-57.2824,-140.313
1.5684,-0.0586,0.1003,-159.8321,-57.3588,-142.2443
1.5938,-0.0723,0.1306,-160.2824,-57.0534,-143.8397
1.6099,-0.0693,0.1382,-159.9924,-55.7863,-145.6107
1.6289,-0.0923,0.1543,-159.5114,-54.0305,-147.6565
1.6543,-0.1042,0.1846,-158.6031,-51.9466,-149.7252
1.6694,-0.1274,0.1978,-157.6336,-49.5496,-151.9313
1.6938,-0.126,0.2161,-155.8244,-47.8626,-154.4275
1.7222,-0.137,0.2236,-153.6794,-46.4733,-156.9695
1.7432,-0.135,0.2444,-151.3053,-45.0382,-159.7252
1.7729,-0.1492,0.2451,-148.8244,-43.9618,-162.626
1.781,-0.1506,0.2451,-146.313,-43.458,-165.7328
1.8164,-0.1489,0.2319,-143.4657,-43.1221,-169.2748
1.8442,-0.1479,0.2266,-141.4122,-42.9695,-173.0076
1.8792,-0.147,0.2119,-139.3664,-42.7481,-177.0992
1.905,-0.1467,0.1821,-138.0916,-42.4275,-181.626
1.9453,-0.1411,0.1709,-137.2137,-42.2519,-186.3893
1.9827,-0.1365,0.1431,-136.6488,-41.687,-191.0611
1.9999,-0.1335,0.1174,-136.6488,-40.626,-196.6412
1.9999,-0.1252,0.0862,-137.2443,-39.4885,-201.9237
1.9999,-0.1191,0.0698,-138.0076,-37.3511,-208.1603
1.9999,-0.1135,0.0291,-139.6412,-34.6565,-214.2977
1.9999,-0.1094,-0.0044,-141.8092,-31.458,-220.542
1.9999,-0.1128,-0.0286,-144.3817,-28.0076,-227.9008
1.9999,-0.1113,-0.0508,-147.2977,-24.5573,-234.9313
1.9999,-0.1279,-0.0635,-150.8702,-20.9389,-242.2748
1.9999,-0.1272,-0.0698,-154.3664,-17.084,-250.0305
1.9999,-0.1357,-0.0659,-158.1908,-13.7023,-250.1374
1.9999,-0.137,-0.0637,-162.2366,-10.5267,-250.1374
1.9999,-0.1479,-0.0525,-166.3053,-7.0382,-250.1374
1.9999,-0.1587,-0.0496,-170.2901,-4.3588,-250.1374
1.9999,-0.1758,-0.0349,-174.771,-1.3893,-250.1374
1.9999,-0.1826,0.0005,-178.4351,0.8931,-250.1374
1.9988,-0.1914,0.0334,-181.6336,2.5802,-250.1374
1.9265,-0.2148,0.0701,-185.3664,3.4504,-250.1374
1.8569,-0.2253,0.1238,-188.542,3.4198,-250.1374
1.7722,-0.2346,0.1589,-190.8702,2.2519,-250.1374
1.6968,-0.2224,0.2183,-192.2748,0.2595,-250.1374
1.615,-0.2173,0.2644,-192.9313,-3.0076,-250.1374
1.552,-0.2266,0.3054,-193.5802,-7.687,-250.1374
1.5046,-0.2454,0.3516,-193.3435,-13.6641,-250.1374
1.459,-0.2634,0.3723,-193.0076,-19.8015,-250.1374
1.4368,-0.2744,0.3862,-192.3359,-26.4504,-250.1374
1.4202,-0.2769,0.3853,-191.5878,-31.9084,-250.1374
1.428,-0.2732,0.3804,-190.1527,-36.5573,-250.1374
1.4221,-0.2759,0.374,-188.8473,-39.8626,-250.1374
1.4231,-0.2537,0.3647,-187.0,-41.2672,-250.1374
1.4426,-0.2393,0.3608,-185.4046,-41.0229,-250.1374
1.457,-0.2319,0.3506,-183.374,-39.8702,-250.1374
1.4829,-0.2261,0.3584,-181.2366,-37.7786,-250.1374
1.5171,-0.2185,0.3437,-179.0916,-34.1679,-250.1374
1.5542,-0.2153,0.3416,-176.4046,-30.1069,-250.1374
1.5635,-0.2129,0.3354,-173.8321,-25.0992,-250.1374
1.5923,-0.2153,0.3293,-170.9771,-18.8779,-250.1374
1.6187,-0.2107,0.3071,-168.3512,-11.2137,-250.1374
1.6372,-0.2107,0.3027,-165.6412,-2.8015,-250.1374
1.6511,-0.2056,0.3145,-163.1985,6.7328,-250.1374
1.6416,-0.2092,0.3186,-160.4657,16.3817,-250.1374
1.6387,-0.2063,0.3354,-157.8931,25.916,-250.1374
1.6162,-0.2053,0.3821,-155.229,35.3282,-250.1374
1.6018,-0.1982,0.4009,-152.4657,43.7863,-250.1374
1.5579,-0.1978,0.4453,-149.7023,51.6489,-250.1374
1.5222,-0.1914,0.4944,-146.6947,58.3359,-250.1374
1.4678,-0.1836,0.5305,-143.7786,63.916,-250.1374
1.4182,-0.1855,0.5745,-140.3053,68.8626,-250.1374
1.3523,-0.1802,0.6145,-136.3206,72.771,-250.1374
1.3135,-0.1851,0.6587,-132.4657,74.9084,-250.1374
1.2603,-0.1812,0.6711,-128.4351,77.4427,-250.1374
1.2227,-0.1812,0.7004,-124.2214,79.0687,-250.1374
1.1653,-0.1724,0.7473,-119.313,80.1374,-250.1374
1.1021,-0.1641,0.7747,-114.3817,80.1832,-250.1374
1.0527,-0.1611,0.801,-108.8473,79.9847,-250.1374
0.9985,-0.1628,0.8225,-103.0305,79.4427,-250.1374
0.9524,-0.1724,0.8169,-97.6565,78.9237,-250.1374
0.9143,-0.1838,0.8276,-91.7328,77.9542,-250.1374
0.8738,-0.1948,0.8354,-85.916,76.4427,-250.1374
0.8523,-0.2017,0.814,-80.145,74.7939,-250.1374
0.8455,-0.2031,0.7942,-73.8626,73.1908,-250.1374
0.8367,-0.2222,0.7812,-67.5573,72.0153,-250.1374
0.8276,-0.2241,0.7566,-62.2137,71.0153,-250.1374
0.8213,-0.2202,0.7236,-56.8473,70.9313,-250.1374
0.8176,-0.2109,0.7268,-52.0916,71.5038,-250.1374
0.8135,-0.2026,0.7153,-47.5496,72.6336,-250.1374
0.8169,-0.1941,0.7107,-43.2595,73.916,-250.1374
0.8167,-0.1797,0.7236,-39.2519,74.5115,-250.1374
0.8237,-0.1731,0.7148,-36.3969,75.229,-250.1374
0.8174,-0.1584,0.729,-32.8321,75.3588,-250.1374
0.8257,-0.1465,0.7268,-30.2137,75.6336,-250.1374
0.8281,-0.1304,0.7202,-27.7023,76.7481,-250.1374
0.8271,-0.1279,0.7222,-25.084,78.2443,-250.1374
0.8311,-0.1267,0.7305,-22.1679,80.916,-250.1374
0.8169,-0.1199,0.7441,-19.7405,83.7328,-250.1374
0.8052,-0.1057,0.7603,-17.2366,86.0611,-250.1374
0.7764,-0.0964,0.7686,-14.542,88.3664,-250.1374
0.7544,-0.0813,0.7766,-11.7252,91.3511,-250.1374
0.7246,-0.0889,0.7917,-8.6183,93.4504,-250.1374
0.6899,-0.0955,0.8218,-5.4962,96.3206,-250.1374
0.6418,-0.0833,0.8306,-1.9695,98.9771,-250.1374
0.6296,-0.0801,0.8403,1.9466,101.2977,-250.1374
0.5837,-0.0662,0.8484,6.3053,103.5496,-250.1374
0.5461,-0.0681,0.8679,10.7863,105.3588,-250.1374
0.4929,-0.0686,0.8813,15.4504,106.9847,-250.1374
0.4434,-0.0789,0.8989,20.2443,108.5573,-250.1374
0.3889,-0.0789,0.9163,25.5725,109.7634,-250.1374
0.3501,-0.0693,0.9287,31.4504,110.374,-250.1374
0.2996,-0.071,0.9277,37.1069,111.1679,-250.1374
0.2744,-0.0635,0.9219,42.9466,112.5267,-250.1374
0.2288,-0.0583,0.8989,49.5954,114.3359,-250.1374
0.1907,-0.0496,0.8911,56.145,116.5115,-250.1374
0.1438,-0.0347,0.8853,62.7863,118.7252,-250.1374
0.0962,-0.0239,0.8792,69.8702,120.542,-250.1374
0.062,-0.0229,0.866,77.229,122.084,-250.1374
0.0237,-0.0234,0.8662,84.6336,123.0763,-250.1374
-0.0159,-0.0164,0.8474,92.3206,123.6794,-250.1374
-0.0464,-0.0078,0.8254,100.0382,123.9084,-250.1374
-0.0564,-0.0134,0.8191,107.4809,124.0534,-250.1374
-0.0781,-0.0117,0.7937,115.313,123.7405,-248.0611
-0.1089,0.0039,0.7705,123.1756,123.5725,-240.5878
-0.1243,0.009,0.7476,128.7099,123.1832,-233.3969
-0.1458,0.0251,0.7205,135.3359,122.7786,-226.1985
-0.1558,0.052,0.7029,141.7481,122.4885,-219.2748
-0.1553,0.0601,0.6682,147.374,121.855,-212.4809
-0.168,0.0625,0.6548,152.5267,121.1756,-206.1908
-0.1699,0.0769,0.6423,157.4962,121.0992,-200.4504
-0.175,0.0723,0.6211,162.3512,121.084,-194.374
-0.1797,0.0813,0.5901,166.687,121.2748,-189.0992
-0.1831,0.0889,0.552,170.9008,122.2366,-183.771
-0.1814,0.0901,0.5195,175.2977,123.3206,-178.229
-0.1846,0.0837,0.4851,179.6336,125.084,-173.2901
-0.197,0.082,0.4736,183.8321,127.1832,-167.8168
-0.198,0.0754,0.436,187.8855,129.3512,-162.3282
-0.2104,0.084,0.4248,191.458,132.6641,-156.8473
-0.2175,0.0876,0.407,195.5038,135.9008,-151.1069
-0.2314,0.0964,0.387,199.4962,139.6031,-145.229
-0.2507,0.1099,0.376,203.6641,144.1527,-139.1298
-0.2676,0.1133,0.3728,207.6641,148.6107,-132.8931
-0.2944,0.1118,0.3674,211.6947,153.6718,-126.1145
-0.3184,0.1113,0.364,215.6488,158.916,-119.1756
-0.3489,0.1099,0.3608,219.7023,163.9847,-111.7939
-0.3699,0.0974,0.3503,223.9618,168.313,-104.0153
-0.3821,0.085,0.3472,228.542,172.5191,-96.4885
-0.4043,0.0835,0.3467,232.6947,176.916,-88.1221
-0.4333,0.0796,0.3357,238.7786,182.4962,-77.0153
-0.4622,0.0767,0.343,245.2137,188.1679,-65.1069
-0.4819,0.0813,0.3416,250.1298,192.7252,-55.2977
-0.4932,0.0925,0.3542,250.1298,197.4809,-44.1221
-0.5132,0.0908,0.3616,250.1298,201.7252,-33.855
-0.5271,0.0959,0.3586,250.1298,205.6412,-23.7939
-0.542,0.1013,0.356,250.1298,209.5802,-13.9008
-0.5454,0.0937,0.354,250.1298,213.4198,-3.626
-0.5508,0.0901,0.3445,250.1298,216.6488,6.0534
-0.5615,0.0918,0.3379,250.1298,219.3512,15.771
-0.5686,0.0864,0.3252,250.1298,221.6031,25.4046
-0.5593,0.0649,0.3091,250.1298,223.1374,35.2901
-0.5542,0.0559,0.2727,250.1298,224.1832,44.8092
-0.5437,0.0356,0.2471,250.1298,224.5038,54.4427
-0.5232,0.0076,0.2227,250.1298,224.6183,64.5725
-0.512,0.0005,0.1934,250.1298,224.0992,73.4504
-0.49,-0.0271,0.156,250.1298,223.145,83.3817
-0.4604,-0.0498,0.126,250.1298,222.229,92.5649
-0.4316,-0.0654,0.0967,250.1298,221.2824,101.1679
-0.3975,-0.0859,0.0515,250.1298,220.0305,109.5115
-0.3633,-0.0957,0.0232,250.1298,218.5954,117.5878
-0.3308,-0.1023,0.0044,250.1298,217.1374,124.5038
-0.3025,-0.1047,-0.0078,250.1298,215.3435,130.8702
-0.2827,-0.1116,-0.03,250.1298,213.3969,136.0305
-0.2666,-0.1248,-0.063,250.1298,209.8779,141.2366
-0.2507,-0.1316,-0.0947,250.1298,205.6794,144.7481
-0.2192,-0.1406,-0.1294,250.1298,200.0916,147.8092
-0.2063,-0.1458,-0.1707,250.1298,193.2824,150.4122
-0.1956,-0.1553,-0.238,250.1298,185.7557,152.3817
-0.1892,-0.1592,-0.2903,250.1298,176.6718,153.7939
-0.1785,-0.1565,-0.3545,250.1298,167.084,155.3435
-0.168,-0.1565,-0.4026,250.1298,156.626,156.2214
-0.1558,-0.1526,-0.426,250.1298,144.8626,157.5573
-0.1472,-0.1501,-0.4893,250.1298,132.542,158.6718
-0.127,-0.1257,-0.5208,250.1298,120.3588,159.4809
-0.1165,-0.1128,-0.563,250.1298,107.6641,160.1756
-0.0918,-0.085,-0.5891,250.1298,95.626,161.0076
-0.0649,-0.0684,-0.6255,250.1298,83.7023,161.7176
-0.0415,-0.0476,-0.6577,250.1298,73.7863,162.2443
-0.0249,-0.0476,-0.6733,250.1298,65.6641,162.8397
-0.0059,-0.0498,-0.6917,250.1298,59.2366,163.8702
0.0205,-0.0461,-0.7205,250.1298,54.1145,164.8397
0.0474,-0.0479,-0.7354,250.1298,51.2748,165.7328
0.0635,-0.0332,-0.7456,250.1298,50.7481,167.0763
0.083,-0.0161,-0.7317,250.1298,51.9389,168.3512
0.0862,0.0085,-0.7068,250.1298,54.9313,170.1221
0.0979,0.0146,-0.7056,250.1298,59.458,172.0076
0.0942,0.0164,-0.687,250.1298,64.9847,174.0992
0.0886,0.0085,-0.6689,250.1298,71.1985,176.5038
0.0723,0.0005,-0.6602,250.1298,78.1756,179.4275
0.0574,-0.0154,-0.6453,250.1298,85.5802,182.7786
0.0366,-0.0374,-0.6355,250.1298,93.6641,186.6718
0.0039,-0.0667,-0.6147,250.1298,101.8779,191.4809
-0.0208,-0.0928,-0.6023,250.1298,109.9924,197.0458
-0.051,-0.1001,-0.5937,250.1298,119.8092,204.7863
-0.0898,-0.127,-0.5762,250.1298,128.3664,213.6412
-0.1064,-0.1355,-0.5674,250.1298,134.7176,221.5878
-0.127,-0.1465,-0.5544,250.1298,140.8397,230.5191
-0.1426,-0.1616,-0.5364,250.1298,145.5038,239.4427
-0.1431,-0.176,-0.5305,250.1298,149.1527,248.7786
-0.1458,-0.1921,-0.543,250.1298,151.9771,250.1298
-0.1458,-0.2239,-0.5562,250.1298,154.0687,250.1298
-0.1333,-0.2588,-0.5557,250.1298,155.1603,250.1298
-0.1099,-0.2976,-0.5664,250.1298,155.3893,250.1298
-0.095,-0.3167,-0.5798,250.1298,155.2672,250.1298
-0.0669,-0.3481,-0.5847,250.1298,155.2214,250.1298
-0.031,-0.3967,-0.6079,250.1298,154.9389,250.1298
0.0056,-0.4382,-0.5947,250.1298,154.3664,250.1298
0.0542,-0.4734,-0.594,250.1298,152.6488,250.1298
0.1045,-0.5073,-0.5876,250.1298,149.3282,250.1298
0.1558,-0.5513,-0.5874,250.1298,143.855,250.1298
0.2048,-0.582,-0.5818,250.1298,135.3206,250.1298
0.2842,-0.626,-0.5984,250.1298,123.6794,250.1298
0.324,-0.6436,-0.6025,250.1298,110.4885,250.1298
0.4033,-0.6709,-0.6262,250.1298,93.6412,250.1298
0.4873,-0.6875,-0.6702,250.1298,76.1832,250.1298
0.5674,-0.6936,-0.719,250.1298,58.4962,250.1298
0.6689,-0.6787,-0.7676,250.1298,40.2595,250.1298
0.7529,-0.6497,-0.8345,250.1298,23.1603,250.1298
0.8418,-0.6157,-0.9231,250.1298,7.1832,250.1298
0.9324,-0.5767,-0.9976,250.1298,-8.8244,250.1298
1.0095,-0.5334,-1.0977,250.1298,-22.4351,250.1298
1.043,-0.4971,-1.1528,250.1298,-33.0076,250.1298
1.1182,-0.4407,-1.2549,250.1298,-42.3664,250.1298
1.1687,-0.3867,-1.3623,250.1298,-48.4809,236.5267
1.2095,-0.3357,-1.4795,250.1298,-51.6412,222.2977
1.2393,-0.2734,-1.5842,250.1298,-51.7557,208.626
1.2556,-0.2195,-1.6897,250.1298,-49.4962,196.1603
1.26,-0.1611,-1.7739,250.1298,-44.4504,184.771
1.2524,-0.1113,-1.8369,250.1298,-36.4427,174.7557
1.2288,-0.0417,-1.9128,250.1298,-26.6183,166.4122
1.2173,-0.0161,-1.9402,250.1298,-14.8321,159.7939
1.176,0.0291,-1.9824,250.1298,-1.2595,154.3817
1.1326,0.0693,-2.0,250.1298,13.458,150.9695
1.0798,0.1116,-2.0,245.7405,30.9466,149.4962
1.0227,0.157,-2.0,233.8702,48.3435,149.5573
0.9548,0.1931,-2.0,222.2977,66.1832,151.5343
0.894,0.2231,-2.0,211.5725,84.0687,154.8244
0.8315,0.2385,-1.9744,201.4198,101.9847,159.4886
0.7656,0.2471,-1.947,191.6565,119.5649,164.855
0.74,0.2483,-1.9321,182.771,136.687,171.4504
0.6831,0.2329,-1.8877,174.4427,152.7328,178.7481
0.6196,0.22,-1.8423,166.0687,167.7328,186.2214
0.5686,0.1921,-1.7715,158.3893,181.1221,194.3435
0.5193,0.1709,-1.7083,151.0534,192.3893,202.8931
0.4841,0.1462,-1.646,143.7252,201.3435,210.916
0.4463,0.1199,-1.5562,137.1603,208.1679,219.2824
0.4119,0.0984,-1.4958,130.5191,212.8168,227.5878
0.3887,0.0725,-1.417,123.1985,216.8321,236.8244
0.3772,0.0425,-1.3521,117.2824,218.6107,244.1374
0.3613,0.009,-1.2935,113.3359,218.7328,250.1298
0.3572,-0.0254,-1.2427,109.1069,216.9695,250.1298
0.3579,-0.041,-1.2195,106.7405,213.4427,250.1298
0.364,-0.0747,-1.1819,104.4351,207.3282,250.1298
0.3831,-0.1074,-1.1367,103.0916,198.8397,250.1298
0.4106,-0.124,-1.085,102.1908,187.8397,250.1298
0.436,-0.146,-1.0525,102.1374,174.626,250.1298
0.4858,-0.1572,-1.0208,102.2443,158.8397,250.1298
0.5454,-0.1536,-1.0095,103.1679,140.8397,250.1298
0.6182,-0.1565,-1.0332,103.8397,120.5343,250.1298
0.6982,-0.1479,-1.0674,104.4046,99.4351,250.1298
0.7446,-0.1379,-1.1001,104.0534,79.0534,250.1298
0.8374,-0.1089,-1.1636,103.3664,60.626,250.1298
0.9226,-0.0835,-1.2207,100.9008,44.4885,250.1298
1.001,-0.0378,-1.3037,97.6641,30.6565,250.1298
1.075,-0.0042,-1.3706,92.8015,19.4733,249.0153
1.1348,0.0344,-1.4463,87.0229,10.6565,240.4809
1.1863,0.0637,-1.5239,80.2748,5.2519,231.5038
1.2222,0.0889,-1.5959,72.2214,1.8473,222.2672
1.2332,0.0879,-1.6292,63.2748,0.6947,214.2977
1.2471,0.1108,-1.6938,53.458,1.8015,206.9237
1.2556,0.1301,-1.7537,43.229,4.5267,200.8855
1.2498,0.1382,-1.7881,32.2748,8.2137,196.5496
1.2437,0.1614,-1.8083,20.3282,13.3664,193.8168
1.2424,0.175,-1.8152,8.8855,19.1756,192.5267
1.2354,0.1868,-1.8342,-2.2824,25.4427,192.6336
1.2427,0.1853,-1.8225,-13.3664,32.6336,193.5878
1.2393,0.186,-1.833,-23.1603,39.9924,194.9847
1.2402,0.1746,-1.8198,-33.7786,49.2672,196.9389
1.2502,0.1548,-1.8125,-43.3511,58.3969,198.4886
1.2617,0.123,-1.7761,-52.4885,67.9695,199.7863
1.271,0.0974,-1.7502,-60.8244,77.8855,200.7099
1.2747,0.0601,-1.7092,-68.8244,88.5496,201.3512
1.2769,0.0393,-1.6719,-76.3282,100.0382,201.6794
1.271,0.0278,-1.6296,-82.9618,111.0153,201.4504
1.2544,0.0146,-1.5632,-89.2672,121.8397,201.1527
1.2463,-0.01,-1.5273,-95.3435,132.313,200.7176
1.23,-0.0427,-1.4812,-101.3359,142.145,200.3435
1.218,-0.0708,-1.4221,-106.7557,151.0305,199.8397
1.1877,-0.0935,-1.3413,-112.1221,158.687,199.4809
1.1606,-0.1096,-1.2681,-117.2595,166.1298,198.8626
1.1287,-0.127,-1.1978,-121.9389,173.1298,198.0992
1.1008,-0.145,-1.1243,-126.2214,179.2824,197.1374
1.0684,-0.1577,-1.0471,-130.0229,184.7634,196.3969
1.0493,-0.1621,-0.9998,-133.4733,189.1069,195.7328
1.0146,-0.1831,-0.9219,-136.6107,192.2977,195.1527
0.9758,-0.208,-0.8459,-138.9237,194.1527,194.2672
0.9302,-0.2251,-0.7681,-141.1756,194.0992,193.916
0.9004,-0.2444,-0.6809,-142.6412,192.6183,193.3893
0.8604,-0.2473,-0.585,-143.542,189.6641,192.9313
0.8254,-0.2578,-0.5039,-143.6183,185.6107,192.4351
0.7959,-0.2639,-0.4324,-143.3282,180.1985,192.0
0.7761,-0.2642,-0.3459,-141.8321,172.374,191.5649
0.7571,-0.2671,-0.2864,-139.916,164.9389,191.771
0.739,-0.2651,-0.2385,-137.1298,156.9542,192.1603
0.7346,-0.2646,-0.2043,-133.7634,148.6565,192.7557
0.73,-0.2649,-0.1917,-129.7939,140.0534,193.4962
0.74,-0.262,-0.165,-125.3359,131.1679,194.2824
0.7471,-0.2642,-0.1467,-120.6947,122.7939,195.3893
0.77,-0.2637,-0.158,-115.9924,114.626,196.3053
0.7874,-0.2651,-0.1646,-111.1145,107.0382,197.1374
0.822,-0.2566,-0.1836,-106.4733,100.2977,198.3053
0.8547,-0.2595,-0.2063,-102.4198,94.6412,199.0305
0.8877,-0.2532,-0.2307,-98.7023,89.4504,200.0153
0.9053,-0.2432,-0.248,-96.1298,86.0687,200.6488
0.9539,-0.2419,-0.2881,-94.0611,82.6641,201.1679
0.9929,-0.2351,-0.3213,-92.8244,80.1298,201.084
1.0391,-0.2214,-0.3574,-92.3359,78.5954,201.0
1.0903,-0.2148,-0.3896,-92.3206,76.9466,200.9771
1.1389,-0.2034,-0.428,-93.2214,75.3817,200.3512
1.1914,-0.1809,-0.4641,-94.5267,74.542,199.6641
1.2437,-0.1697,-0.5017,-96.084,73.771,198.4198
1.2708,-0.1597,-0.5237,-98.0687,73.4504,196.8779
1.3176,-0.1506,-0.55,-100.8626,74.0305,194.6488
1.3735,-0.1414,-0.5962,-103.6565,74.2748,191.8244
1.4292,-0.1267,-0.6021,-106.7634,74.8244,188.8473
1.4895,-0.1138,-0.6228,-110.4122,75.8092,185.1679
1.5474,-0.1084,-0.6372,-114.0458,76.5725,180.8779
1.5938,-0.1116,-0.6528,-118.1298,77.4504,175.9313
1.6355,-0.1091,-0.6665,-122.1221,78.2366,170.374
1.6877,-0.1038,-0.6816,-126.2137,79.4733,164.6565
1.7087,-0.0972,-0.6924,-130.5114,80.5191,158.2366
1.7468,-0.0986,-0.7,-135.0153,82.0534,150.8321
1.7712,-0.0935,-0.6929,-139.3512,83.6107,143.8626
1.7988,-0.0903,-0.6885,-143.6336,85.3053,136.6641
1.813,-0.0994,-0.6721,-148.3359,86.9847,128.7786
1.8198,-0.1086,-0.6526,-152.5954,88.7939,121.5725
1.8113,-0.1265,-0.6277,-157.0458,90.0916,113.8702
1.7981,-0.1418,-0.5906,-161.0611,91.5649,106.3435
1.771,-0.1431,-0.5566,-164.5343,92.916,99.5878
1.7561,-0.1492,-0.532,-167.4427,93.6412,92.5267
1.7197,-0.1511,-0.4978,-169.458,94.3817,85.9924
1.6748,-0.1523,-0.4529,-170.7786,94.6641,80.313
1.6174,-0.155,-0.4131,-171.2214,94.8855,75.4885
1.5735,-0.1541,-0.3674,-171.2137,94.4427,71.7939
1.511,-0.1704,-0.3274,-170.5573,93.3282,68.8092
1.4756,-0.1733,-0.291,-169.8244,92.1603,66.7634
1.4236,-0.1897,-0.2778,-168.5878,90.4809,65.2824
1.4072,-0.1897,-0.2654,-167.2901,89.0611,64.7557
1.3601,-0.1948,-0.2446,-165.7023,87.1603,65.0534
1.3281,-0.2056,-0.2285,-163.8931,85.2901,65.8015
1.3101,-0.2095,-0.2078,-161.9084,83.2443,66.8244
1.2925,-0.2083,-0.1846,-160.1603,81.3588,68.1603
1.2749,-0.2107,-0.1638,-158.2672,79.1298,69.8931
1.2729,-0.21,-0.1516,-156.1145,76.855,70.8015
1.2722,-0.2183,-0.1379,-153.9008,74.313,72.1298
1.2803,-0.2246,-0.1223,-151.1603,71.916,73.7557
1.2937,-0.2234,-0.1248,-148.8397,70.313,74.7328
1.3206,-0.2393,-0.125,-146.6641,68.4809,75.8931
1.3428,-0.2551,-0.1292,-144.3435,66.8321,76.5802
1.3562,-0.251,-0.1311,-142.2519,64.8702,76.771
1.3848,-0.2607,-0.137,-140.1908,62.5725,76.7481
1.4187,-0.2671,-0.1382,-138.4504,59.5573,76.3969
1.4519,-0.27,-0.1323,-136.6488,56.4733,75.3588
1.4893,-0.27,-0.135,-135.4275,53.0305,73.542
1.5398,-0.2671,-0.1394,-134.1603,49.3282,71.7176
1.5837,-0.2683,-0.1472,-133.3282,45.9847,68.4046
1.6289,-0.2571,-0.1709,-132.8931,43.2748,65.2672
1.6755,-0.2708,-0.1826,-132.6412,40.8092,61.1069
1.7002,-0.271,-0.1804,-132.7023,38.3588,57.1221
1.7295,-0.2742,-0.1956,-133.0916,36.3817,52.3817
1.772,-0.2693,-0.1992,-133.5496,34.8168,47.3817
1.8096,-0.2661,-0.1965,-134.1756,33.2977,42.4198
1.8435,-0.261,-0.2048,-134.7863,32.1908,36.8321
1.8689,-0.2573,-0.2058,-135.3817,31.8092,31.0763
1.8899,-0.2581,-0.2141,-136.2901,31.7099,25.8702
1.9119,-0.2573,-0.2305,-136.7863,32.9313,20.0382
1.916,-0.2563,-0.2339,-137.5802,34.6412,14.687
1.9155,-0.2693,-0.2415,-138.6412,37.0687,9.6489
1.9155,-0.2771,-0.2407,-139.3817,39.916,4.145
1.9041,-0.2927,-0.2314,-140.2214,43.2214,-0.7176
1.8916,-0.3047,-0.2195,-140.9008,46.5038,-5.0
1.8691,-0.3179,-0.2053,-141.3588,49.9618,-8.5802
1.8516,-0.3274,-0.1711,-141.5573,53.2214,-12.1221
1.8318,-0.3267,-0.1284,-141.6031,55.9618,-15.0611
1.8154,-0.3176,-0.1064,-141.4809,57.8015,-17.2519
1.7827,-0.3086,-0.0522,-140.458,59.3053,-20.0382
1.7629,-0.3074,-0.0015,-139.0305,60.542,-22.6641
1.7371,-0.3091,0.0327,-137.0229,62.0076,-25.1069
1.7244,-0.3066,0.0701,-134.2137,63.458,-27.5038
1.6948,-0.3118,0.115,-130.6947,64.7939,-30.4198
1.6599,-0.3274,0.1279,-126.8244,66.3969,-33.2137
1.6204,-0.3494,0.1423,-122.6947,68.5115,-35.8168
1.5786,-0.3574,0.1543,-118.0229,71.1603,-38.687
1.5549,-0.3613,0.1438,-113.0382,74.0611,-40.8397
1.5071,-0.3665,0.175,-107.626,76.1908,-42.2977
1.4446,-0.3682,0.1843,-102.3206,77.5954,-43.3588
1.3853,-0.3535,0.1968,-97.084,78.6947,-43.4733
1.3149,-0.3281,0.2144,-91.9618,78.9237,-42.313
1.2634,-0.3066,0.2134,-86.8779,78.2748,-40.6565
1.2163,-0.2866,0.2209,-82.145,76.8092,-38.6565
1.1699,-0.2639,0.2356,-77.6565,75.1298,-35.5344
1.1477,-0.2551,0.23,-73.2214,73.1069,-31.8397
1.123,-0.2446,0.2292,-69.0153,70.6641,-28.8473
1.0959,-0.2395,0.2046,-65.2977,68.1908,-24.7939
1.071,-0.2324,0.2019,-61.5115,65.7786,-20.7786
1.0649,-0.2273,0.186,-58.1679,63.5573,-16.9695
1.0647,-0.2229,0.1633,-55.3359,61.2366,-13.5725
1.0625,-0.2097,0.1462,-52.6183,59.0153,-10.1908
1.0742,-0.2024,0.1365,-50.3817,57.0534,-7.626
1.085,-0.2002,0.1321,-48.3893,55.1069,-5.0763
1.1064,-0.1787,0.1116,-46.3664,52.9389,-2.4733
1.1211,-0.1731,0.1038,-45.0382,51.2748,-0.7863
1.1433,-0.1677,0.0947,-43.6718,49.1985,0.0687
1.1536,-0.1667,0.0906,-42.8321,47.3206,0.5802
1.1702,-0.1677,0.0825,-42.3435,45.4198,0.9389
1.2019,-0.1631,0.0781,-41.9008,43.1145,0.7176
1.2188,-0.1528,0.073,-41.4504,40.6641,0.1527
1.2476,-0.1521,0.0649,-41.2824,38.6183,-0.8321
1.2717,-0.1523,0.0552,-41.1985,36.5038,-2.313
1.283,-0.1484,0.0554,-41.0153,34.7405,-3.7939
1.3088,-0.1433,0.0427,-40.6489,33.7176,-5.6794
1.3125,-0.1436,0.0437,-40.8015,32.7557,-7.9618
1.321,-0.144,0.0413,-40.6947,32.1069,-9.9542
1.3298,-0.1409,0.0334,-40.4275,31.9695,-12.4046
1.3281,-0.1438,0.0244,-40.1298,32.0076,-14.687
1.3284,-0.1372,0.0183,-40.0153,32.2214,-16.687
1.322,-0.1355,0.011,-39.5725,32.7099,-18.771
1.3093,-0.1323,0.0051,-39.1069,33.1985,-20.4733
1.2952,-0.1279,-0.0037,-38.5344,33.7252,-22.0458
1.2886,-0.1345,0.0042,-38.145,34.5802,-23.4046
1.2703,-0.1411,0.0059,-37.3588,35.1603,-24.1756
1.2517,-0.1343,0.0015,-37.0763,35.1069,-25.1069
1.2258,-0.1326,0.0115,-36.5267,35.2137,-26.0382
1.1975,-0.1372,0.0242,-35.9389,35.0534,-26.4351
1.1726,-0.1357,0.04,-35.2214,34.458,-27.0076
1.1511,-0.1414,0.0417,-34.3969,33.6718,-27.313
1.1184,-0.134,0.0564,-33.5038,32.7634,-27.5344
1.0955,-0.1333,0.082,-32.1221,31.4504,-27.5038
1.0818,-0.1321,0.0808,-30.8015,30.0305,-27.2748
1.0662,-0.1335,0.0896,-29.3053,28.4962,-26.9237
1.0408,-0.1338,0.1023,-27.3969,26.5878,-26.2443
1.019,-0.1348,0.1077,-25.5496,24.7099,-25.7176
1.0149,-0.1353,0.1089,-23.4733,22.9618,-24.7328
1.0027,-0.1399,0.1099,-21.2977,21.2977,-23.5954
0.9863,-0.1421,0.1211,-18.7863,19.7099,-22.3053
0.9812,-0.1455,0.1106,-16.3435,18.4046,-21.0076
0.9802,-0.1409,0.0981,-13.9313,17.5344,-19.9542
0.968,-0.1387,0.0901,-11.5725,17.1221,-18.6336
0.9534,-0.1399,0.0764,-9.2443,16.8168,-17.1603
0.9468,-0.1389,0.0637,-7.0153,16.8702,-15.6183
0.9373,-0.1289,0.0532,-4.8244,16.8626,-13.8015
0.9338,-0.1267,0.0447,-2.6412,16.9313,-12.0992
0.9292,-0.1206,0.0227,-0.9084,16.8244,-9.313
0.9253,-0.116,0.0195,0.6718,16.3588,-7.0382
0.9309,-0.1133,0.0125,2.0,15.7863,-4.6794
0.9363,-0.1042,0.0032,3.374,15.0153,-2.1679
0.9604,-0.1033,-0.0059,4.4275,14.5038,0.2214
0.9617,-0.1001,-0.0239,5.4275,13.8092,2.084
0.9873,-0.1052,-0.0488,6.4427,12.9847,3.7328
1.0129,-0.0962,-0.0586,7.2977,12.4198,4.8321
1.0334,-0.0947,-0.0798,8.1069,11.9695,5.3511
1.0569,-0.1013,-0.0955,8.6183,11.687,5.2977
1.0688,-0.0911,-0.1135,8.8473,11.3969,5.1756
1.0896,-0.0876,-0.1196,8.6565,11.3588,4.3588
1.1179,-0.0759,-0.1265,8.4885,10.9466,3.0
1.1316,-0.0728,-0.1384,7.9466,10.5573,2.0076
1.135,-0.0657,-0.1426,7.2519,10.2748,0.2137
1.1384,-0.0645,-0.1531,6.4198,9.6947,-1.4046
1.1533,-0.0598,-0.1616,5.2824,8.9924,-3.1221
1.1519,-0.0625,-0.1768,4.3053,8.1069,-5.1679
1.1528,-0.0664,-0.1777,3.374,7.3969,-7.0687
1.1541,-0.0583,-0.1814,2.2824,6.5954,-8.8092
1.1462,-0.0613,-0.1914,1.0763,6.0076,-10.5038
1.134,-0.0554,-0.1895,0.1374,5.6794,-12.0382
1.1348,-0.0557,-0.1887,-0.8779,5.4885,-13.4885
1.1323,-0.05,-0.1882,-1.9695,6.0611,-14.1679
1.1206,-0.0564,-0.1875,-2.4962,6.2977,-15.0305
1.1099,-0.0564,-0.1904,-3.1069,6.6718,-15.4275
1.1003,-0.0542,-0.1807,-3.8015,7.5954,-15.7405
1.095,-0.0571,-0.1846,-4.1298,8.7176,-15.9237
1.0874,-0.0496,-0.1675,-4.3435,9.7786,-15.6794
1.0813,-0.0535,-0.177,-4.458,11.1832,-15.626
1.0801,-0.0659,-0.1709,-4.2595,12.6183,-14.9847
1.0664,-0.062,-0.1609,-4.3206,14.1298,-14.8321
1.0562,-0.0706,-0.1604,-4.1298,15.5496,-14.229
1.0513,-0.0698,-0.1462,-3.6794,17.0992,-13.4351
1.0464,-0.0725,-0.1492,-3.6641,18.3511,-12.9466
1.0457,-0.0732,-0.1375,-3.3282,19.5344,-12.3511
1.0339,-0.0754,-0.1345,-2.8015,20.2977,-12.2748
1.0339,-0.0764,-0.1311,-2.5115,21.3511,-11.7786
1.0237,-0.0791,-0.1213,-1.9389,22.5725,-11.0382
1.0225,-0.0864,-0.1238,-1.458,23.4733,-11.0763
1.0088,-0.0862,-0.1118,-0.7786,23.9237,-10.8473
1.0012,-0.0901,-0.1104,-0.1221,24.3435,-10.3282
0.9844,-0.092,-0.1082,0.4351,24.2137,-9.8168
0.9719,-0.093,-0.0881,1.0916,23.626,-9.2901
0.9634,-0.0959,-0.0906,1.8473,22.8702,-9.145
0.9534,-0.0916,-0.0854,2.6794,21.6641,-8.2748
0.9453,-0.0935,-0.0776,3.7557,20.6412,-7.6336
0.9409,-0.0957,-0.0769,4.7252,18.7557,-7.084
0.9365,-0.095,-0.0769,5.626,17.4046,-6.1756
0.9277,-0.095,-0.082,6.7176,15.5573,-5.2748
0.9319,-0.0869,-0.0901,7.6718,13.8931,-4.4275
0.9304,-0.0942,-0.0859,8.3282,12.1527,-3.4504
0.937,-0.093,-0.0955,8.8015,10.3588,-2.7405
0.9431,-0.083,-0.1077,9.6565,8.4504,-2.0153
0.9534,-0.0818,-0.1187,10.3359,6.6794,-1.0305
0.9543,-0.0881,-0.1125,10.542,5.1069,-0.5878
0.9607,-0.0786,-0.1292,10.8779,3.6794,-0.0534
0.9792,-0.0757,-0.1353,11.2901,2.4046,0.0534
0.9873,-0.0735,-0.1509,11.4427,1.2519,0.0611
1.0024,-0.0698,-0.1653,11.3435,0.2901,0.1832
1.0132,-0.0688,-0.1724,11.2061,-0.6565,-0.0763
1.0266,-0.0605,-0.1655,11.1679,-1.5496,-0.3053
1.04,-0.0598,-0.1836,10.9389,-2.0229,-0.3359
1.0479,-0.042,-0.187,10.2672,-2.4656,-0.5954
1.0569,-0.0481,-0.1963,10.0611,-2.8931,-1.0534
1.064,-0.0383,-0.2151,9.5191,-2.8015,-1.5878
1.0901,-0.0303,-0.2239,8.4809,-2.1985,-2.229
1.0911,-0.0332,-0.2278,7.7176,-1.8702,-2.7099
1.1094,-0.0254,-0.239,6.8321,-1.5802,-3.0611
1.1096,-0.0269,-0.2351,6.0382,-0.6107,-3.6336
1.1218,-0.0273,-0.2422,5.2977,0.5344,-4.4351
1.1182,-0.0225,-0.2532,4.1756,1.4962,-5.1832
1.1279,-0.0203,-0.252,2.9924,2.6718,-5.4809
1.1274,-0.0166,-0.2524,1.9695,3.5573,-6.3817
1.123,-0.0168,-0.2698,0.8321,4.6718,-6.8092
1.124,-0.0173,-0.2668,-0.4504,5.7863,-7.5573
1.116,-0.0105,-0.2646,-1.7023,6.6947,-8.2977
1.1177,-0.0125,-0.2632,-2.9389,7.6641,-8.3817
1.1143,-0.0186,-0.259,-4.374,8.2977,-8.9466
1.104,-0.0193,-0.2534,-5.9695,8.7786,-9.458
1.1006,-0.0183,-0.2444,-7.2137,8.9313,-9.8092
1.0942,-0.0173,-0.2451,-8.374,8.855,-10.0153
1.0898,-0.0352,-0.2263,-9.458,8.9313,-10.4427
1.0823,-0.0347,-0.2241,-10.6718,8.7405,-10.687
1.0725,-0.0461,-0.2021,-11.3282,8.5573,-10.6183
1.0713,-0.0471,-0.2009,-12.1298,8.2672,-10.7786
1.0718,-0.0515,-0.1997,-12.4809,8.1908,-10.771
1.0681,-0.062,-0.1775,-12.9237,8.0992,-10.4809
1.0603,-0.0686,-0.1685,-13.0382,7.9695,-10.5115
1.0574,-0.0796,-0.1558,-13.0992,7.6718,-10.6107
1.0532,-0.0771,-0.1418,-13.0305,7.2595,-10.2214
1.0564,-0.0884,-0.1287,-12.7939,6.6107,-10.4351
1.0542,-0.0833,-0.1135,-12.1374,6.0458,-10.1298
1.0488,-0.0955,-0.1057,-11.6412,5.3969,-10.2443
1.0476,-0.1003,-0.1108,-10.9389,4.916,-9.9313
1.0532,-0.1018,-0.0957,-10.2901,4.2672,-10.084
1.0503,-0.1069,-0.0979,-9.2137,4.1908,-9.9771
1.0481,-0.1135,-0.084,-8.1832,4.2595,-9.8397
1.0488,-0.1116,-0.0862,-7.3511,4.2366,-9.9771
1.0452,-0.115,-0.075,-6.0611,4.1069,-9.7328
1.0435,-0.1177,-0.0872,-5.2061,4.0763,-9.7481
1.0342,-0.1133,-0.0781,-3.9847,3.9847,-9.5115
1.0361,-0.1104,-0.0835,-3.0076,4.0229,-9.6489
1.0293,-0.1067,-0.0698,-1.9008,4.0458,-9.4122
1.0271,-0.1006,-0.0818,-0.8473,3.6031,-8.8931
