ax,ay,az,gx,gy,gz
0.887,0.0005,0.6506,88.3969,-56.3282,118.7481
0.8892,0.0005,0.6763,97.0763,-56.1756,120.6947
0.8726,0.0029,0.6985,105.1527,-56.3359,122.3588
0.8645,-0.0034,0.7231,112.916,-56.5802,124.0305
0.8635,-0.0007,0.7434,120.6947,-56.5878,125.9847
0.8567,-0.0024,0.759,128.8321,-56.7023,127.5343
0.8542,-0.0149,0.7664,137.2519,-56.6565,129.4809
0.8472,-0.0352,0.7764,145.4122,-56.5496,131.4886
0.8447,-0.062,0.7825,153.7481,-56.4122,133.4046
0.8416,-0.0798,0.7834,162.2443,-56.458,135.7099
0.8398,-0.1187,0.7844,171.5496,-56.3893,138.6641
0.8401,-0.1426,0.7832,180.5802,-56.2824,141.3282
0.8469,-0.1721,0.7917,189.5343,-56.0687,144.313
0.8667,-0.2009,0.7798,198.5343,-55.6718,147.3893
0.8743,-0.2356,0.7715,207.5343,-55.0534,150.5267
0.8979,-0.2668,0.7546,216.5267,-54.3817,153.8397
0.9299,-0.2937,0.7405,225.1908,-53.542,156.6794
0.9673,-0.3247,0.7246,234.2214,-52.5573,159.8168
0.9856,-0.3362,0.7102,242.6565,-52.0687,162.1756
1.032,-0.3555,0.6885,250.1298,-51.4275,164.4275
1.0696,-0.3672,0.6611,250.1298,-50.458,166.3282
1.123,-0.3989,0.6404,250.1298,-49.916,167.5954
1.1753,-0.4314,0.6167,250.1298,-49.6641,168.2137
1.2356,-0.4546,0.6013,250.1298,-50.0611,168.3893
1.3044,-0.4758,0.5735,250.1298,-50.7863,167.8244
1.385,-0.4878,0.5559,250.1298,-51.8244,166.4809
1.4248,-0.4995,0.5374,250.1298,-53.7481,164.8855
1.4946,-0.5183,0.5015,250.1298,-55.7405,161.8626
1.5774,-0.5327,0.4678,250.1298,-57.7099,158.6488
1.6497,-0.5537,0.4214,250.1298,-59.5954,153.8626
1.7334,-0.5767,0.3816,250.1298,-61.9084,148.5496
1.8008,-0.6086,0.3533,250.1298,-64.7176,142.2595
1.8567,-0.6184,0.3201,250.1298,-68.9695,135.2137
1.925,-0.627,0.2969,250.1298,-74.6031,127.4198
1.9736,-0.613,0.252,250.1298,-80.6183,118.1145
1.9998,-0.6104,0.21,250.1298,-84.6183,109.1527
1.9999,-0.5962,0.1536,250.1298,-88.1756,97.7176
1.9999,-0.5979,0.0945,250.1298,-92.2061,87.2137
1.9999,-0.595,0.0364,250.1298,-96.0229,76.2901
1.9999,-0.6038,-0.0127,250.1298,-97.458,65.458
1.9999,-0.5889,-0.0664,250.1298,-101.0763,54.9313
1.9999,-0.5813,-0.1182,250.1298,-105.1985,44.3817
1.9999,-0.5505,-0.1538,250.1298,-109.2595,34.3435
1.9999,-0.5408,-0.1577,250.1298,-113.1985,25.313
1.9999,-0.53,-0.2078,250.1298,-117.1527,14.4504
1.9999,-0.5264,-0.2639,250.1298,-120.1221,4.5954
1.9999,-0.5212,-0.3079,250.1298,-122.4504,-5.4427
1.9999,-0.5295,-0.3423,250.1298,-124.6107,-15.1908
1.9999,-0.5303,-0.3945,250.1298,-125.5573,-25.5725
1.9999,-0.5327,-0.4402,250.1298,-125.7252,-35.6183
1.9999,-0.5298,-0.4734,250.1298,-125.2977,-45.4046
1.9999,-0.5332,-0.5015,250.1298,-124.3359,-55.4046
1.9999,-0.5278,-0.5247,250.1298,-122.8321,-64.916
1.9999,-0.5281,-0.5632,250.1298,-121.2977,-74.4198
1.9999,-0.5242,-0.5894,250.1298,-119.4275,-84.2214
1.9999,-0.5378,-0.6318,250.1298,-117.6641,-94.8626
1.9999,-0.5381,-0.6514,250.1298,-116.4504,-105.1069
1.9999,-0.53,-0.6704,250.1298,-116.2061,-113.9084
1.9999,-0.5129,-0.6855,250.1298,-116.8473,-122.3588
1.9999,-0.4961,-0.7087,250.1298,-117.5191,-130.8015
1.9999,-0.4734,-0.7324,250.1298,-118.3053,-139.374
1.9999,-0.4568,-0.7539,250.1298,-119.3435,-147.9542
1.9999,-0.4448,-0.7869,250.1298,-120.9618,-156.1985
1.9999,-0.4409,-0.8237,250.1298,-122.4427,-165.3359
1.9999,-0.4414,-0.8323,250.1298,-123.7099,-174.8626
1.9999,-0.4551,-0.8567,250.1298,-125.2137,-184.8244
1.9999,-0.4702,-0.8911,250.1298,-126.9466,-195.6488
1.9999,-0.4995,-0.9165,250.1298,-128.5878,-206.8931
1.9999,-0.5122,-0.9375,250.1298,-131.1527,-218.5038
1.9999,-0.5178,-0.9526,250.1298,-133.7481,-230.7481
1.9999,-0.5098,-0.9788,250.1298,-136.8321,-243.9313
1.9999,-0.5049,-1.0007,250.1298,-140.0916,-250.1374
1.9999,-0.4963,-1.0134,250.1298,-143.0763,-250.1374
1.9999,-0.4766,-1.0349,250.1298,-146.458,-250.1374
1.9999,-0.4675,-1.0669,250.1298,-149.4962,-250.1374
1.9999,-0.4719,-1.085,250.1298,-152.0916,-250.1374
1.9999,-0.4697,-1.1208,245.0763,-154.5191,-250.1374
1.9999,-0.4812,-1.1287,238.2137,-157.5649,-250.1374
1.9932,-0.4912,-1.1489,230.9466,-160.6641,-250.1374
1.9507,-0.5068,-1.1692,223.5573,-163.3053,-250.1374
1.9304,-0.5032,-1.1895,216.6412,-165.9084,-250.1374
1.9036,-0.4985,-1.1958,208.4809,-168.771,-250.1374
1.8633,-0.4773,-1.207,201.229,-170.374,-250.1374
1.8369,-0.4541,-1.2205,193.9237,-170.5191,-250.1374
1.8105,-0.4255,-1.2537,186.3282,-169.1603,-250.1374
1.7981,-0.3933,-1.2698,178.2748,-165.5573,-250.1374
1.7756,-0.3691,-1.3027,170.7252,-160.0611,-250.1374
1.7505,-0.3555,-1.3374,163.1679,-152.5649,-250.1374
1.7368,-0.3535,-1.3726,155.8244,-142.9313,-250.1374
1.7178,-0.3645,-1.3896,148.5802,-132.6488,-250.1374
1.696,-0.4023,-1.428,140.145,-119.7863,-250.1374
1.6638,-0.4282,-1.4438,132.4198,-106.3664,-250.1374
1.6287,-0.439,-1.4563,124.8168,-92.5496,-250.1374
1.5796,-0.436,-1.4387,116.855,-77.6565,-250.1374
1.5334,-0.4202,-1.4436,110.0534,-61.6947,-250.1374
1.4636,-0.3979,-1.4321,103.3588,-45.9313,-250.1374
1.4006,-0.3674,-1.4348,98.2214,-30.5344,-250.1374
1.3589,-0.3572,-1.4172,94.1908,-16.6718,-250.1374
1.2842,-0.3306,-1.4312,91.2672,-1.9389,-250.1374
1.2048,-0.3083,-1.4343,89.4504,11.1756,-250.1374
1.1182,-0.2839,-1.4482,88.5878,23.2214,-250.1374
1.0256,-0.2686,-1.449,87.9847,33.8779,-250.1374
0.9463,-0.2351,-1.4551,87.6641,43.0916,-250.1374
0.8572,-0.2063,-1.4604,87.458,51.0763,-250.1374
0.7805,-0.1641,-1.4734,87.458,58.0534,-250.1374
0.6951,-0.1328,-1.5,87.2977,63.6107,-250.1374
0.6633,-0.1094,-1.499,86.4809,69.0076,-250.1374
0.5813,-0.0764,-1.5178,84.9084,73.6718,-250.1374
0.5178,-0.0383,-1.5256,82.7939,77.8244,-250.1374
0.4749,-0.0137,-1.5259,79.2824,79.4962,-250.1374
0.4229,-0.0166,-1.5139,75.0992,75.5878,-250.1374
0.3857,0.0186,-1.5,70.1832,71.4122,-250.1374
0.3318,0.0659,-1.4768,64.7405,67.3817,-250.1374
0.2463,0.0989,-1.4539,58.8855,62.6412,-250.1374
0.2224,0.1467,-1.4551,53.0458,57.5191,-250.1374
0.176,0.1812,-1.4563,47.1221,51.2214,-250.1374
0.1538,0.2119,-1.4604,40.7099,43.8702,-250.1374
0.1326,0.251,-1.4629,34.0763,36.5191,-250.1374
0.1375,0.2712,-1.4878,27.0,28.916,-250.1374
0.1257,0.2917,-1.5037,19.8473,21.4809,-250.1374
0.1121,0.3323,-1.5173,12.2748,14.9847,-250.1374
0.094,0.3594,-1.5237,4.5496,8.9847,-250.1374
0.0752,0.3977,-1.5291,-3.3664,3.2824,-249.1985
0.0562,0.4172,-1.5308,-11.5038,-2.2901,-243.0076
0.0339,0.4299,-1.5154,-19.5114,-8.9695,-237.542
0.0066,0.4265,-1.491,-28.0076,-16.6565,-231.9008
-0.0127,0.4299,-1.4875,-36.4046,-26.1756,-225.9466
-0.0396,0.4192,-1.4724,-44.6718,-37.1603,-220.2672
-0.0637,0.4121,-1.4519,-52.9237,-49.0305,-214.5343
-0.0732,0.4104,-1.428,-61.3206,-61.4962,-208.855
-0.0994,0.4058,-1.4082,-70.0076,-74.4275,-202.9389
-0.1143,0.417,-1.3855,-78.5954,-87.9237,-197.2137
-0.1218,0.4226,-1.3474,-86.8626,-101.2748,-190.6031
-0.126,0.4419,-1.3162,-95.229,-115.4427,-184.2977
-0.1379,0.4473,-1.2915,-103.5802,-129.2672,-178.0534
-0.1272,0.4585,-1.283,-112.1069,-144.1069,-171.2672
-0.1255,0.4419,-1.2517,-120.0229,-158.5114,-164.5343
-0.1179,0.4116,-1.2166,-127.6107,-173.4351,-157.9389
-0.0981,0.3833,-1.1917,-134.8473,-189.3206,-151.6412
-0.0771,0.3479,-1.165,-141.8779,-205.3435,-145.3053
-0.0535,0.3152,-1.1379,-148.8168,-220.9771,-139.4733
-0.0134,0.2688,-1.0999,-155.2748,-236.2137,-134.3359
0.0391,0.2156,-1.072,-161.5954,-250.1374,-129.4962
0.0688,0.1765,-1.0623,-167.687,-250.1374,-125.1527
0.1365,0.1179,-1.0493,-173.4351,-250.1374,-121.0229
0.2131,0.085,-1.0344,-178.3893,-250.1374,-117.3664
0.303,0.0835,-1.0254,-183.0229,-250.1374,-113.9008
0.4014,0.0994,-1.0002,-187.1832,-250.1374,-110.9008
0.4976,0.1348,-0.9949,-190.4962,-250.1374,-107.5343
0.6018,0.1582,-0.9807,-193.0992,-250.1374,-105.1756
0.7004,0.1707,-0.97,-195.7176,-250.1374,-103.084
0.7527,0.1687,-0.9675,-197.6488,-250.1374,-102.3282
0.8418,0.1631,-0.9663,-199.5114,-250.1374,-101.9389
0.9275,0.1592,-0.9448,-200.9237,-250.1374,-103.1908
1.0149,0.1479,-0.9199,-202.0153,-250.1374,-105.0076
1.0959,0.1375,-0.8992,-203.0611,-250.1374,-107.8855
1.1633,0.1201,-0.864,-204.0611,-250.1374,-111.6031
1.2327,0.1018,-0.8511,-204.5802,-246.8244,-116.313
1.2891,0.0979,-0.8113,-204.7405,-241.7328,-121.6336
1.3098,0.0994,-0.7747,-204.4657,-237.8702,-127.1908
1.3645,0.1055,-0.7505,-203.9618,-234.3206,-134.4351
1.4026,0.0957,-0.7271,-202.8855,-232.0458,-141.9237
1.4336,0.0908,-0.73,-201.5878,-229.1603,-150.5267
1.449,0.1094,-0.7454,-199.6794,-224.4657,-162.2824
1.4343,0.1272,-0.7651,-197.0229,-218.9542,-174.916
1.415,0.1389,-0.7629,-195.0534,-215.0992,-185.5802
1.375,0.155,-0.7583,-193.0,-213.0382,-196.7481
1.3237,0.1843,-0.7673,-191.3664,-213.1374,-205.9924
1.2507,0.231,-0.7864,-189.9542,-214.1908,-214.4504
1.1709,0.249,-0.8064,-189.0076,-216.9466,-222.6794
1.0874,0.2803,-0.8333,-189.229,-220.6183,-230.5114
1.0415,0.2852,-0.8533,-189.9542,-224.6947,-237.4962
0.9436,0.3037,-0.906,-191.855,-228.8626,-244.0916
0.8545,0.3245,-0.9546,-194.4733,-233.0916,-249.9771
0.7576,0.3447,-0.9907,-197.9924,-237.4504,-250.1374
0.6753,0.3596,-1.0286,-201.9542,-241.5954,-250.1374
0.5786,0.3687,-1.051,-206.5191,-246.9924,-250.1374
0.491,0.395,-1.0845,-211.5267,-250.1374,-250.1374
0.4048,0.4148,-1.1187,-216.8244,-250.1374,-250.1374
0.3699,0.4241,-1.1226,-222.0992,-250.1374,-250.1374
0.2798,0.4512,-1.1543,-228.2137,-250.1374,-250.1374
0.2075,0.479,-1.1531,-233.7939,-250.1374,-250.1374
0.1423,0.481,-1.1431,-239.9313,-250.1374,-250.1374
0.0874,0.4663,-1.1433,-246.1069,-250.1374,-250.1374
0.0374,0.4302,-1.1387,-250.1374,-250.1374,-246.7557
-0.0154,0.365,-1.1177,-250.1374,-250.1374,-242.687
-0.0576,0.2468,-1.1204,-250.1374,-250.1374,-238.9771
-0.0823,0.0994,-1.1118,-250.1374,-250.1374,-235.6565
-0.1067,0.0117,-1.1082,-250.1374,-250.1374,-231.626
-0.1213,-0.124,-1.0898,-250.1374,-250.1374,-228.1374
-0.1355,-0.1812,-1.0371,-250.1374,-250.1374,-223.5114
-0.1355,-0.1716,-0.9734,-250.1374,-250.1374,-217.9084
-0.1348,-0.0857,-0.885,-250.1374,-250.1374,-210.3053
-0.1218,0.0107,-0.8049,-250.1374,-250.1374,-202.1679
-0.1086,0.0947,-0.7178,-250.1374,-250.1374,-192.687
-0.0955,0.1458,-0.6641,-250.1374,-250.1374,-182.7481
-0.0876,0.1765,-0.6382,-250.1374,-250.1374,-173.0763
-0.0769,0.2156,-0.584,-250.1374,-250.1374,-161.6641
-0.0691,0.2378,-0.5278,-250.1374,-250.1374,-151.1603
-0.0664,0.2366,-0.4756,-250.1374,-249.084,-141.0992
-0.0706,0.2356,-0.428,-250.1374,-238.3588,-130.6718
-0.064,0.2219,-0.3889,-250.1374,-227.7634,-120.8779
-0.0542,0.2061,-0.3716,-250.1374,-217.5649,-111.6412
-0.0403,0.1907,-0.3594,-242.6641,-207.8244,-102.2901
-0.04,0.1841,-0.3601,-233.8168,-197.9389,-93.7557
-0.0249,0.1865,-0.3672,-225.0763,-187.8473,-85.2977
-0.0054,0.1858,-0.3562,-216.0458,-178.4351,-77.7099
0.0261,0.2102,-0.3638,-207.229,-169.3664,-70.1756
0.0283,0.2424,-0.3523,-198.4351,-161.6336,-62.8321
0.0413,0.2803,-0.3503,-189.145,-153.5725,-55.9313
0.0471,0.3162,-0.3579,-180.1985,-146.3282,-49.3282
0.0464,0.3416,-0.3645,-172.5038,-140.7176,-43.7939
0.0544,0.3655,-0.3821,-165.4657,-135.9466,-39.4656
0.0664,0.384,-0.3989,-159.458,-132.2061,-35.2901
0.0706,0.4138,-0.4167,-154.2824,-129.0611,-32.1527
0.0747,0.4272,-0.4285,-150.0458,-126.5496,-29.6412
0.0698,0.468,-0.448,-146.8779,-124.374,-27.4962
0.0649,0.5176,-0.4558,-144.4275,-122.2748,-26.0534
0.0593,0.552,-0.4619,-143.4351,-121.5725,-25.458
0.053,0.5691,-0.4766,-143.7328,-121.9008,-25.7481
0.0386,0.6079,-0.4775,-144.8779,-123.7405,-26.626
0.0205,0.6238,-0.4822,-146.9695,-126.3435,-27.2595
0.0095,0.6501,-0.4858,-149.6336,-129.3359,-28.3969
-0.0103,0.6794,-0.4854,-153.2748,-134.0305,-29.9618
-0.0266,0.6934,-0.4753,-157.4046,-139.8244,-31.8092
-0.0386,0.6853,-0.4844,-162.084,-146.3206,-33.7939
-0.0493,0.6946,-0.4983,-167.3664,-153.4046,-35.4656
-0.0625,0.7168,-0.4973,-172.7099,-160.8168,-37.2595
-0.0647,0.7341,-0.5015,-177.9237,-167.9618,-39.2061
-0.0781,0.7319,-0.4885,-183.1832,-175.4275,-41.0305
-0.0789,0.7339,-0.4851,-188.4733,-182.855,-43.084
-0.0903,0.7263,-0.4629,-193.2901,-189.8931,-45.0763
-0.0984,0.7083,-0.4521,-197.7023,-196.1069,-47.0916
-0.1104,0.6912,-0.4224,-201.7634,-202.3817,-48.9771
-0.125,0.6821,-0.4077,-205.3817,-208.0153,-51.0153
-0.1279,0.6628,-0.3792,-208.5878,-213.5725,-52.5267
-0.1299,0.6577,-0.3672,-211.3206,-217.9542,-53.916
-0.1401,0.626,-0.3486,-213.5191,-221.2901,-54.9542
-0.1384,0.5771,-0.3389,-215.5725,-223.1221,-55.8626
-0.1499,0.5066,-0.3096,-217.2519,-223.5114,-56.374
-0.1592,0.418,-0.2976,-218.6947,-222.6794,-56.4427
-0.1621,0.3379,-0.2764,-219.7328,-220.5114,-56.2061
-0.1611,0.2781,-0.2471,-220.3435,-217.626,-55.3282
-0.1663,0.2715,-0.2202,-219.9008,-213.916,-53.4504
-0.1533,0.2976,-0.1799,-218.5802,-209.6718,-50.374
-0.1548,0.3093,-0.1577,-215.6794,-204.3282,-46.0153
-0.1382,0.3594,-0.1462,-211.9695,-197.313,-40.6183
-0.1326,0.3997,-0.1333,-207.3588,-189.374,-34.458
-0.1255,0.4326,-0.1045,-202.0763,-180.4275,-27.5649
-0.1182,0.4451,-0.1023,-196.6794,-170.6336,-20.2137
-0.1042,0.4399,-0.0869,-191.0611,-160.0076,-12.8168
-0.0989,0.4248,-0.0586,-185.8092,-149.3893,-5.3435
-0.0994,0.4268,-0.0691,-180.4886,-137.9618,2.4122
-0.1001,0.429,-0.0618,-175.1145,-126.3893,9.7328
-0.1057,0.4338,-0.0342,-170.1069,-115.2366,16.8626
-0.1111,0.4482,-0.021,-164.8321,-104.3206,25.1908
-0.1201,0.4573,-0.0063,-159.9008,-93.8321,32.5191
-0.125,0.4915,0.0229,-155.3053,-85.855,39.6565
-0.1428,0.5132,0.0437,-150.9618,-78.5878,46.4962
-0.1611,0.5283,0.0674,-147.1603,-71.8779,53.2748
-0.1819,0.552,0.0742,-143.2519,-65.7176,59.1679
-0.1877,0.5554,0.0852,-139.9008,-61.626,64.1527
-0.2153,0.5723,0.1072,-136.6794,-58.0916,69.1374
-0.2437,0.5818,0.1265,-133.9008,-56.6107,73.0763
-0.272,0.5811,0.1414,-131.5343,-56.8626,76.4809
-0.2954,0.5864,0.1538,-129.1832,-58.6183,79.6336
-0.3167,0.584,0.1555,-127.2824,-61.5115,82.0611
-0.3459,0.5698,0.1565,-126.0382,-65.5115,84.458
-0.3477,0.575,0.1611,-124.9618,-70.7099,86.8931
-0.3521,0.5808,0.1711,-124.1832,-76.4504,89.2595
-0.3523,0.5923,0.1621,-123.771,-82.9008,91.5496
-0.3467,0.614,0.155,-123.5496,-90.8931,94.4809
-0.3376,0.6301,0.1482,-123.7099,-96.8626,96.9237
-0.3335,0.6394,0.1416,-123.8168,-104.9924,99.1832
-0.3191,0.6501,0.1208,-123.9618,-111.2137,102.1985
-0.2925,0.6487,0.1118,-124.4046,-116.5725,104.7252
-0.2727,0.6565,0.0864,-125.0305,-121.5725,106.9084
-0.2634,0.6694,0.0842,-125.5802,-125.2672,109.3588
-0.2402,0.676,0.0737,-126.3664,-128.7099,111.1908
-0.219,0.6619,0.0583,-126.8092,-131.3053,112.7863
-0.2026,0.658,0.0632,-127.6183,-133.8397,114.5191
-0.1926,0.6426,0.0662,-128.0916,-135.8626,115.9389
-0.1885,0.6333,0.0581,-128.5191,-138.0534,117.084
-0.1816,0.6431,0.0605,-128.7405,-140.1374,117.9924
-0.1814,0.6511,0.0754,-128.7176,-142.0687,119.2443
-0.1768,0.6414,0.0791,-128.4962,-143.5343,120.2214
-0.1782,0.6335,0.0779,-128.3969,-144.9313,121.4733
-0.1838,0.6045,0.0776,-128.1374,-145.8321,122.7863
-0.1941,0.5781,0.0735,-128.313,-146.1527,123.9618
-0.2046,0.5398,0.0774,-128.5954,-146.3282,125.542
-0.2104,0.5256,0.0752,-129.2595,-146.1679,127.1527
-0.2229,0.4868,0.0801,-130.0611,-145.8473,129.1756
-0.2371,0.4563,0.0959,-130.9542,-144.7786,131.458
-0.2517,0.4326,0.1111,-131.8626,-143.687,134.6718
-0.2754,0.4309,0.1274,-132.9237,-141.8397,138.7023
-0.2917,0.4277,0.1572,-133.5954,-139.4733,143.313
-0.3164,0.449,0.1824,-133.7557,-136.1374,148.6947
-0.3357,0.4758,0.2153,-133.6718,-132.8244,154.855
-0.3623,0.4829,0.2571,-132.9618,-129.084,161.0992
-0.3735,0.4893,0.27,-131.9924,-125.0687,168.6794
-0.3906,0.4888,0.3098,-130.9084,-120.855,176.5573
-0.4065,0.4719,0.3481,-129.2366,-116.7328,184.5802
-0.4128,0.4189,0.3665,-127.5496,-113.3282,193.0992
-0.407,0.3787,0.3718,-125.1145,-109.5573,202.0305
-0.4028,0.3447,0.3818,-122.1298,-106.3664,211.3817
-0.4062,0.3137,0.3875,-118.8321,-102.8092,220.6412
-0.397,0.2908,0.3828,-115.0916,-99.4962,230.3282
-0.3948,0.2876,0.3901,-110.9466,-97.4733,239.9695
-0.3945,0.2737,0.408,-106.2977,-94.1985,249.7557
-0.3862,0.2585,0.405,-101.3817,-92.6947,250.1298
-0.3782,0.2446,0.4128,-96.3817,-92.7176,250.1298
-0.3599,0.2278,0.4246,-91.626,-92.4427,250.1298
-0.3467,0.2068,0.4226,-86.687,-90.0076,250.1298
-0.3267,0.1946,0.4397,-81.7023,-91.1221,250.1298
-0.3044,0.1782,0.4553,-76.7557,-90.1069,250.1298
-0.2903,0.1743,0.4524,-71.8092,-91.1298,250.1298
-0.249,0.1716,0.4548,-66.0763,-91.3053,250.1298
-0.217,0.1716,0.4722,-60.3969,-93.7328,250.1298
-0.1724,0.1794,0.4751,-54.8015,-94.5496,250.1298
-0.123,0.1877,0.4917,-49.2519,-95.2748,250.1298
-0.0688,0.1873,0.4866,-43.3969,-94.8779,250.1298
-0.0156,0.1965,0.4656,-37.771,-93.6718,250.1298
0.0488,0.1914,0.4468,-32.3435,-92.5191,250.1298
0.1052,0.1953,0.4414,-26.9542,-88.7939,250.1298
0.1406,0.1904,0.4355,-21.9237,-86.1985,250.1298
0.2329,0.187,0.4268,-15.4656,-81.4733,250.1298
0.2932,0.1919,0.4175,-11.0,-76.9618,250.1298
0.3591,0.1929,0.3882,-7.0229,-71.5191,250.1298
0.4265,0.2002,0.3711,-3.3664,-65.2977,250.1298
0.481,0.2051,0.3367,-0.1069,-58.3435,250.1298
0.5393,0.2095,0.3198,3.4656,-50.3282,250.1298
0.5632,0.2102,0.314,5.9237,-43.5954,250.1298
0.6084,0.2056,0.293,8.3817,-35.2214,250.1298
0.6479,0.2021,0.2749,10.1679,-27.3893,250.1298
0.6875,0.1934,0.2878,11.771,-19.3435,250.1298
0.7168,0.1929,0.3018,12.5496,-12.8244,250.1298
0.7412,0.1887,0.3105,12.9084,-6.5496,250.1298
0.7549,0.189,0.3169,12.9924,-0.3664,250.1298
0.7534,0.176,0.3479,12.9313,4.9313,250.1298
0.7517,0.1548,0.3748,12.542,9.6565,250.1298
0.7502,0.1477,0.3955,12.0076,13.4809,250.1298
0.7407,0.1436,0.4258,12.0916,15.9237,250.1298
0.7434,0.1326,0.4683,12.0611,17.2595,250.1298
0.7449,0.1104,0.5037,12.3817,17.4351,250.1298
0.7544,0.0735,0.552,13.3817,16.626,250.1298
0.771,0.0342,0.5723,15.0916,15.5878,250.1298
0.7986,0.0085,0.5798,17.3282,14.7863,250.1298
0.8345,-0.01,0.592,20.2061,14.3282,250.1298
0.8691,-0.0227,0.5925,23.8855,14.4198,250.1298
0.8896,-0.0249,0.5908,27.9084,15.0153,250.1298
0.9114,-0.041,0.6082,32.4122,15.9847,250.1298
0.9502,-0.0742,0.635,37.2901,16.5344,250.1298
0.9922,-0.0842,0.6267,42.3588,17.0229,250.1298
1.0239,-0.105,0.6235,47.7405,17.8244,250.1298
1.0708,-0.1096,0.6245,53.7481,17.3282,250.1298
1.123,-0.1221,0.6155,59.5573,16.687,250.1298
1.1765,-0.124,0.5972,65.916,16.1908,250.1298
1.2046,-0.1191,0.5713,71.5191,15.9466,250.1298
1.2615,-0.1252,0.5354,78.0229,16.2519,250.1298
1.3325,-0.1177,0.5103,83.9389,17.1603,250.1298
1.3936,-0.1064,0.4812,89.6718,18.8931,250.1298
1.4536,-0.0881,0.4548,94.8702,20.9466,250.1298
1.5142,-0.0632,0.4365,99.7557,23.5191,250.1298
1.5645,-0.0413,0.4207,103.8168,26.3435,250.1298
1.6152,-0.0171,0.4114,107.5649,28.8779,250.1298
1.6575,0.0144,0.4121,110.9542,31.2214,250.1298
1.6758,0.031,0.4148,113.4427,33.9695,250.1298
1.7073,0.0645,0.4114,115.6641,36.9389,250.1298
1.7322,0.1099,0.4207,116.7328,39.6107,250.1298
1.7439,0.1333,0.4241,118.5191,42.2977,250.1298
1.7434,0.1636,0.4458,119.5115,44.5573,250.1298
1.7278,0.1863,0.4656,119.5343,46.0153,250.1298
1.7063,0.2126,0.4968,119.5725,46.2901,250.1298
1.6797,0.2214,0.5369,119.3282,45.458,250.1298
1.6455,0.2383,0.5693,118.7099,43.9237,250.1298
1.6238,0.2395,0.6069,117.2824,42.2061,249.0229
1.5781,0.2556,0.6375,118.3588,40.2137,242.6641
1.5408,0.2534,0.676,119.084,38.145,237.5725
1.5242,0.252,0.6958,119.626,36.229,232.916
1.4712,0.2417,0.7429,121.6947,33.6107,227.8473
1.4417,0.2202,0.762,122.9084,31.1145,224.5802
1.4177,0.1851,0.7949,126.4275,29.2595,222.4351
1.4041,0.1516,0.8086,129.9695,26.8855,221.5114
1.4099,0.0962,0.7771,133.6565,25.5114,221.2595
1.4268,0.0479,0.7466,138.5573,25.0382,221.458
1.4438,0.0005,0.6868,143.7557,25.5802,222.0992
1.4766,-0.031,0.6152,149.5649,28.3969,223.2366
1.5144,-0.0393,0.5518,155.458,32.6336,224.7634
1.5571,-0.053,0.4802,161.3664,38.4427,226.0153
1.5969,-0.064,0.4075,166.4657,45.2137,227.5038
1.6389,-0.0659,0.3437,171.0916,52.6107,228.6183
1.6614,-0.0613,0.3135,175.1603,60.6489,229.855
1.708,-0.0593,0.25,178.4427,68.7786,230.7252
1.7397,-0.0591,0.1951,180.7023,76.5802,230.9084
1.7864,-0.0422,0.1445,182.2901,83.8473,230.9008
1.8181,-0.0347,0.1077,182.7405,89.8779,229.9924
1.8484,-0.0176,0.0801,182.5343,94.5038,228.5573
1.873,-0.0195,0.0654,180.8015,97.3817,226.6412
1.8994,-0.0244,0.0674,178.2672,98.2748,223.4427
1.9077,-0.0195,0.051,174.916,98.542,219.4657
1.9282,-0.0039,0.0474,170.9924,97.9466,214.4657
1.958,0.021,0.0522,166.4198,95.6718,207.8779
1.9844,0.0469,0.0613,162.0763,93.0153,200.7863
1.9999,0.0916,0.0793,157.3817,89.2824,193.0153
1.9999,0.1238,0.1021,152.7328,84.2061,184.2977
1.9999,0.155,0.1267,148.1374,78.2366,175.4122
1.9999,0.1736,0.1428,143.855,71.4351,165.6794
1.9999,0.1733,0.1462,139.9618,65.0153,156.3053
1.9999,0.1887,0.1663,136.0229,57.4046,145.2901
1.9999,0.1851,0.1919,132.2824,49.1832,135.0153
1.9999,0.1963,0.2004,129.0916,41.5267,124.374
1.9999,0.2048,0.1995,126.1221,34.8855,114.2748
1.9999,0.2126,0.2236,123.2443,28.084,104.0992
1.9999,0.219,0.2458,121.8168,21.8244,93.7634
1.9999,0.2166,0.2671,120.2061,15.8855,84.1221
1.9999,0.22,0.2759,118.9771,10.4809,75.8702
1.9999,0.2146,0.302,118.2366,4.1985,66.5191
1.9958,0.2017,0.3374,117.6565,-1.1374,58.4046
1.9561,0.196,0.3499,117.6489,-5.8397,51.0076
1.917,0.1821,0.3716,119.2519,-10.2519,44.0382
1.8682,0.1736,0.4128,120.4657,-14.7939,37.5878
1.8262,0.1653,0.4214,121.4046,-18.8321,31.8931
1.7737,0.1665,0.4465,123.0229,-22.1832,26.9695
1.7117,0.1614,0.4612,126.229,-25.313,22.2672
1.6855,0.1638,0.4734,128.9847,-28.1069,18.7176
1.6292,0.1472,0.4902,132.4809,-30.5878,15.5802
1.5703,0.1379,0.5127,136.3435,-32.542,13.0076
1.5134,0.1338,0.5232,139.9771,-33.9008,11.4962
1.4453,0.1221,0.5308,143.9618,-35.1985,10.5344
1.3782,0.1211,0.5442,148.2214,-35.9924,10.0534
1.321,0.1074,0.554,152.7099,-36.7023,10.4046
1.2595,0.1138,0.5569,157.2061,-37.1298,11.0763
1.2004,0.1045,0.5725,163.4733,-37.4351,13.0229
1.1492,0.093,0.563,168.8626,-38.0992,15.1527
1.1099,0.0923,0.5674,173.9542,-38.4046,17.9466
1.072,0.0903,0.5452,178.8321,-38.4504,21.4427
1.0505,0.0737,0.5198,184.1145,-38.9466,25.4656
1.0452,0.0483,0.4871,189.1985,-39.1527,30.3969
1.0532,0.0144,0.4226,194.4351,-38.8092,35.6641
1.0618,-0.0159,0.3555,199.626,-37.771,41.6031
1.0786,-0.0186,0.3113,204.5954,-35.9237,47.542
1.1074,-0.033,0.2432,209.5496,-33.1908,53.1756
1.1458,-0.0293,0.155,214.3435,-29.4351,58.4504
1.1726,-0.0259,0.0908,218.2977,-24.3282,63.4885
1.2021,-0.0034,0.0366,221.8244,-19.1603,68.0229
1.2378,0.0125,-0.0093,224.5496,-13.8626,71.3969
1.2681,0.0393,-0.0676,226.626,-8.3969,74.3817
1.2979,0.0474,-0.1121,228.0,-3.4504,76.7023
1.3113,0.0635,-0.1411,228.5496,1.2595,78.0611
1.3406,0.0735,-0.177,228.2443,4.8779,78.8244
1.3743,0.0894,-0.2148,227.2824,7.855,78.7176
1.395,0.1045,-0.2444,225.7634,10.0763,77.8168
1.415,0.1086,-0.2759,223.2137,11.7481,76.1832
1.4407,0.1243,-0.2927,220.3359,12.7634,73.8168
1.4534,0.1345,-0.3052,216.6947,13.3893,70.8473
1.4644,0.1387,-0.3328,213.0458,13.2214,66.9618
1.4612,0.1443,-0.3289,209.0611,12.0611,63.229
1.4761,0.156,-0.332,204.5725,10.5267,58.3282
1.4812,0.1597,-0.3435,200.0,8.7786,53.3817
1.4705,0.1628,-0.3372,195.3893,6.771,48.3817
1.4634,0.1592,-0.3425,190.9389,4.5115,43.0229
1.459,0.1653,-0.354,186.5725,2.4733,37.7252
1.4438,0.179,-0.3523,182.3969,0.458,32.2519
1.4287,0.1809,-0.3582,178.458,-1.8168,27.2214
1.4143,0.1885,-0.3557,174.9389,-3.771,22.0916
1.3796,0.1851,-0.3667,171.1908,-6.0916,16.6412
1.3523,0.1921,-0.3528,167.7099,-9.1145,12.1221
1.2998,0.1709,-0.3442,164.4962,-12.5038,7.6336
1.2588,0.166,-0.3547,161.4198,-16.374,3.5115
1.2231,0.1587,-0.3503,158.5114,-20.6947,0.1756
1.1797,0.145,-0.3542,155.7863,-24.9389,-2.7023
1.1448,0.1423,-0.3721,153.542,-29.4046,-4.6107
1.1091,0.1494,-0.3757,151.0534,-33.5878,-6.2214
1.0999,0.1516,-0.3831,148.8702,-37.1221,-6.6183
1.0811,0.1533,-0.415,146.7557,-40.542,-7.0382
1.0593,0.1567,-0.4358,144.4809,-43.313,-6.542
1.0378,0.1572,-0.4551,141.6947,-45.2519,-5.2519
1.0271,0.1611,-0.4717,139.0687,-46.7481,-3.8779
1.0195,0.1663,-0.4927,136.1756,-47.6947,-2.145
1.0112,0.1753,-0.5103,133.313,-48.0992,-0.0076
1.0112,0.175,-0.5271,129.9542,-48.0153,2.0687
1.0073,0.177,-0.5342,126.626,-47.8855,4.6565
1.0093,0.1909,-0.5427,123.0076,-47.6336,7.2061
1.03,0.209,-0.5579,120.7786,-47.5038,9.5038
1.0334,0.2134,-0.5649,117.4427,-46.8702,11.7176
1.05,0.2263,-0.5889,113.4657,-45.9847,13.7863
1.0659,0.2249,-0.6077,110.4504,-44.7786,15.4962
1.0813,0.2312,-0.6133,106.3359,-42.7176,17.1985
1.1006,0.2415,-0.6333,102.8473,-40.8321,17.9542
1.113,0.2407,-0.6514,99.4657,-39.2214,18.3969
1.1304,0.2563,-0.6572,96.0,-37.2519,18.4198
1.147,0.2517,-0.678,92.5573,-35.3511,18.1603
1.1602,0.2629,-0.667,88.6565,-33.6336,17.313
1.1687,0.2666,-0.6658,85.1985,-31.8626,16.3206
1.1665,0.2664,-0.6765,81.2519,-30.0534,14.7863
1.1831,0.2781,-0.6836,77.4504,-28.9389,13.3359
1.1926,0.2786,-0.6785,73.3817,-27.9084,11.3511
1.1895,0.2954,-0.6763,69.5954,-26.7557,8.8779
1.1826,0.3027,-0.6753,65.5878,-25.8702,6.6412
1.1797,0.3105,-0.6526,61.8015,-25.313,4.229
1.1653,0.3127,-0.657,57.9924,-25.2672,1.7405
1.1594,0.3113,-0.647,54.6947,-25.5114,-0.313
1.1482,0.3108,-0.6433,50.7252,-26.1603,-2.3893
1.1323,0.311,-0.6321,47.4351,-26.9542,-4.542
1.1133,0.3074,-0.6201,44.3435,-27.7405,-6.4427
1.103,0.3047,-0.6094,41.2366,-28.7634,-7.9924
1.0818,0.2974,-0.6057,38.5802,-29.8092,-9.3282
1.0649,0.2935,-0.6106,36.0229,-30.6947,-10.3282
1.0591,0.2937,-0.606,33.7176,-31.5878,-11.1679
1.0505,0.293,-0.6101,31.5725,-32.3969,-11.5496
1.0408,0.2876,-0.6125,29.4656,-32.9313,-11.6107
1.0364,0.2908,-0.6206,27.1527,-32.855,-11.5802
1.0356,0.2915,-0.6331,25.1832,-32.4962,-11.0382
1.0371,0.2986,-0.6262,22.9924,-31.6718,-10.9237
1.0303,0.3069,-0.6318,20.9542,-30.626,-10.1527
1.0225,0.3186,-0.6448,18.6031,-29.1298,-9.4504
1.0212,0.3188,-0.636,16.084,-27.5191,-8.7023
1.0173,0.3118,-0.6375,13.5344,-26.145,-8.2366
1.0166,0.3062,-0.6304,10.5191,-24.6412,-7.7634
1.0063,0.2944,-0.6228,7.5725,-23.6031,-7.5038
1.0151,0.2876,-0.6216,4.5191,-22.4733,-7.2443
0.9993,0.2915,-0.6082,1.3664,-21.7481,-6.8473
1.0029,0.2937,-0.5908,-1.4962,-21.0229,-6.8092
1.0022,0.2988,-0.575,-4.5267,-20.3359,-6.7328
0.998,0.2988,-0.554,-7.2672,-19.4122,-6.5267
0.9998,0.2976,-0.5364,-9.5191,-18.5649,-6.4122
0.9985,0.2913,-0.5288,-11.7252,-17.916,-6.2748
0.9951,0.2908,-0.5098,-14.1527,-17.0382,-5.9389
0.9917,0.292,-0.4866,-16.0076,-16.3511,-5.6794
0.9915,0.2729,-0.468,-17.8473,-15.8779,-5.4427
0.9954,0.2637,-0.4368,-19.458,-15.4733,-5.4656
0.991,0.2532,-0.4031,-20.5191,-15.4504,-5.1069
0.9929,0.2468,-0.3833,-21.6031,-15.8779,-5.0992
1.0034,0.238,-0.3687,-22.2977,-16.2824,-5.1679
0.9988,0.24,-0.3547,-22.5649,-16.6718,-5.0382
1.0015,0.2366,-0.3389,-22.6641,-16.8855,-5.3435
0.9973,0.2227,-0.3311,-22.5267,-17.3893,-5.6183
0.9949,0.2212,-0.3142,-21.9313,-17.8015,-5.4885
0.9946,0.2126,-0.2983,-21.2366,-18.229,-6.0382
0.9883,0.209,-0.2908,-20.5573,-18.5802,-6.229
0.9863,0.2173,-0.2798,-19.7634,-19.0458,-6.3817
0.9773,0.2131,-0.2656,-18.7863,-20.0763,-6.4122
0.9805,0.2219,-0.2529,-17.8931,-20.9084,-6.5725
0.9751,0.2236,-0.2505,-16.9847,-21.7023,-6.6947
0.9844,0.2332,-0.249,-15.8473,-22.1908,-6.5802
0.9702,0.2456,-0.2493,-15.1603,-22.4427,-6.771
0.9656,0.2446,-0.2458,-14.2672,-22.3206,-6.3893
0.9651,0.2498,-0.2444,-13.4504,-22.4656,-6.0458
0.9685,0.2617,-0.2441,-12.8321,-22.542,-5.7939
0.9648,0.2566,-0.2427,-11.9695,-22.7557,-5.5725
0.9661,0.2585,-0.2439,-11.1374,-22.855,-5.2901
0.9717,0.2571,-0.25,-10.8015,-22.7939,-4.9084
0.9751,0.2542,-0.259,-10.5649,-22.5573,-4.3359
0.9797,0.26,-0.26,-9.9771,-22.2137,-4.0
0.9839,0.2625,-0.2681,-9.7557,-22.145,-3.5878
0.9856,0.26,-0.2788,-10.0153,-21.6412,-3.374
0.9956,0.2644,-0.2888,-9.9542,-21.0382,-3.0229
1.0093,0.2644,-0.2944,-10.2748,-20.1221,-3.0076
1.0037,0.2676,-0.2979,-10.8321,-19.2901,-3.0305
1.022,0.2722,-0.3008,-11.3664,-18.3053,-3.2137
1.0291,0.2732,-0.3013,-12.2901,-17.1145,-3.3511
1.0349,0.2695,-0.3035,-13.0763,-15.8092,-3.8321
1.0396,0.2698,-0.3018,-13.9847,-14.4656,-4.2901
1.0398,0.2634,-0.3132,-14.9924,-12.6031,-4.6031
1.0461,0.2756,-0.3059,-16.0992,-10.9313,-5.2595
1.0427,0.2676,-0.312,-17.1527,-9.3206,-6.0992
1.0435,0.2571,-0.2981,-18.0687,-7.4962,-6.6183
1.0422,0.2458,-0.2935,-18.8092,-5.6718,-7.229
1.0334,0.2439,-0.281,-19.9313,-4.0534,-8.0763
1.0327,0.2314,-0.2788,-20.8168,-2.3053,-8.1756
1.032,0.2292,-0.2773,-21.7634,-0.9466,-8.2672
1.0283,0.2371,-0.2571,-22.7176,0.4427,-8.4962
1.0178,0.2393,-0.2385,-23.3664,1.5344,-8.3664
1.0181,0.2461,-0.2151,-23.9542,2.4351,-7.8702
1.0117,0.249,-0.2048,-24.4122,3.0992,-7.8931
1.0105,0.2424,-0.1921,-24.6565,4.145,-7.3206
1.0088,0.2361,-0.1775,-25.0305,4.542,-7.1069
1.001,0.2246,-0.1555,-24.9313,4.7939,-7.2061
1.0039,0.2273,-0.1448,-24.8855,4.8702,-6.855
0.9966,0.2256,-0.1353,-24.5344,4.8244,-6.8321
0.9966,0.2175,-0.1389,-24.0992,4.7023,-6.8473
0.989,0.2231,-0.1191,-23.2366,4.4656,-6.6947
0.9924,0.2139,-0.1155,-22.4656,4.3435,-6.6947
0.9851,0.2217,-0.0994,-21.5802,3.9924,-6.6183
0.9707,0.2185,-0.084,-20.4504,3.7023,-6.8473
0.9744,0.2234,-0.0774,-19.2137,3.1298,-6.7176
0.959,0.2187,-0.0591,-17.7328,2.2977,-6.5954
0.9609,0.2207,-0.0649,-16.4656,1.5802,-6.4351
0.9607,0.2173,-0.0439,-14.7481,0.313,-6.2137
0.9575,0.2224,-0.0454,-13.1908,-0.7863,-5.916
0.9429,0.2185,-0.0469,-11.4809,-2.0992,-5.6412
0.9443,0.2185,-0.0371,-9.7939,-3.4122,-5.1603
0.9307,0.2187,-0.0378,-8.0153,-5.229,-4.4504
0.9382,0.2205,-0.0359,-6.3359,-7.0534,-3.8168
0.9441,0.2227,-0.0459,-4.9084,-8.6489,-2.771
0.9495,0.2163,-0.0518,-2.8855,-10.4885,-1.7252
0.9524,0.2234,-0.0508,-1.4504,-11.6489,-0.6947
0.9634,0.2273,-0.0676,-0.2214,-12.4504,0.1832
0.9739,0.2288,-0.0872,0.9924,-12.7786,1.0992
0.98,0.2305,-0.0999,1.9313,-12.8092,1.9542
0.9902,0.2358,-0.1138,2.5649,-12.7939,2.2595
0.9998,0.2375,-0.1145,3.2595,-12.4046,2.9618
1.0005,0.2334,-0.1338,3.6336,-11.8931,3.4046
1.0212,0.2454,-0.1462,3.6336,-11.0382,3.8244
1.0278,0.2395,-0.1626,3.9695,-10.0916,3.9771
1.0352,0.2471,-0.1611,3.7557,-8.8931,4.2595
1.0435,0.2473,-0.1716,3.8397,-7.7176,4.1527
1.0496,0.2471,-0.1763,3.3588,-6.2977,4.313
1.0525,0.2517,-0.1929,3.145,-5.1374,4.1145
1.0632,0.2568,-0.1846,2.4962,-3.6412,3.9847
1.0706,0.2615,-0.1943,2.0763,-2.0305,3.7328
1.0762,0.2612,-0.1992,1.3511,-0.6183,3.6412
1.0813,0.2603,-0.2019,0.855,0.9847,3.4198
1.084,0.2673,-0.2056,-0.084,2.6031,2.8931
1.0891,0.2646,-0.2041,-0.8473,4.0076,2.5802
1.0781,0.2622,-0.2036,-1.4885,5.2519,2.0076
1.083,0.2671,-0.1924,-2.0687,6.0992,1.1298
1.0803,0.2605,-0.1882,-2.8397,6.7939,0.7634
1.0774,0.2705,-0.1868,-3.3893,7.2366,0.0534
1.0691,0.2778,-0.1707,-3.5191,7.4656,-0.7328
1.0649,0.2761,-0.1641,-3.7634,7.2137,-1.313
1.0579,0.2756,-0.158,-3.9771,7.0,-2.0
1.0513,0.2759,-0.1631,-4.084,6.3282,-2.7481
1.0466,0.2666,-0.1467,-4.3893,5.6565,-3.3969
1.0347,0.2654,-0.1418,-4.3359,4.8626,-3.916
1.0325,0.2598,-0.1379,-4.3053,3.8473,-4.5496
1.0281,0.2549,-0.1409,-4.3817,2.7634,-5.229
1.0159,0.2571,-0.1353,-4.3435,1.6107,-5.3588
1.0088,0.2529,-0.1284,-4.4351,0.1908,-5.9084
0.9995,0.2629,-0.1101,-4.3588,-0.9847,-6.1298
0.9954,0.2705,-0.1101,-4.3282,-2.4885,-6.1221
0.9839,0.2749,-0.1133,-4.2061,-3.9008,-6.1145
0.9766,0.2649,-0.1094,-4.1374,-5.145,-6.1298
0.97,0.2646,-0.1021,-3.916,-6.2214,-5.3664
0.9675,0.271,-0.105,-3.5954,-7.4427,-5.229
0.9695,0.2651,-0.1035,-3.2443,-8.4351,-4.4733
0.9656,0.262,-0.1001,-2.5878,-9.4962,-3.8397
0.9668,0.2559,-0.1023,-1.9847,-10.1221,-3.0
0.9644,0.2522,-0.1028,-1.1908,-10.6336,-1.9618
0.9702,0.2476,-0.1033,-0.5725,-11.0153,-1.1221
0.98,0.2456,-0.1047,0.4885,-11.1298,-0.229
0.9841,0.2463,-0.1091,1.2519,-10.8626,0.5496
0.9883,0.2415,-0.1204,2.1298,-10.6183,1.2977
0.9932,0.2375,-0.1235,3.3511,-10.1221,2.0611
1.0027,0.2349,-0.1318,4.0763,-9.7176,2.9313
1.0115,0.2405,-0.1414,4.8626,-8.8779,3.4427
1.0161,0.2466,-0.1472,5.5802,-8.0458,4.1527
1.0251,0.2517,-0.1555,5.9924,-7.5191,4.542
1.0376,0.2522,-0.1677,6.3282,-6.7099,4.6641
1.0381,0.2551,-0.1711,6.3511,-5.9084,4.9618
1.0532,0.252,-0.179,6.374,-4.8855,5.0229
1.053,0.2603,-0.1848,6.3664,-3.9771,4.9771
1.0647,0.2581,-0.1851,5.8931,-3.313,4.8397
1.0649,0.2646,-0.1836,5.7481,-2.5725,4.6107
1.0681,0.2646,-0.1975,5.3435,-2.0229,4.2901
1.0737,0.2595,-0.1958,4.8855,-1.5725,4.0305
1.0757,0.2676,-0.2009,4.3969,-1.2519,3.4733
