ax,ay,az,gx,gy,gz
1.3884,-0.1055,-0.3035,-38.3206,13.1527,43.2214
1.4407,-0.0994,-0.3247,-39.9542,14.1069,42.3435
1.4758,-0.0952,-0.3447,-41.5725,15.9313,40.8092
1.5276,-0.0962,-0.3816,-43.2748,17.8092,38.8702
1.5676,-0.0928,-0.3831,-45.1374,19.2977,36.6107
1.6077,-0.0876,-0.3958,-47.4809,21.6336,33.7557
1.6382,-0.0867,-0.4302,-50.0229,23.6947,30.7481
1.6655,-0.0825,-0.4314,-52.7328,25.9542,27.5038
1.6987,-0.073,-0.4431,-55.9771,27.9084,24.4504
1.7205,-0.0669,-0.45,-60.2519,29.916,20.1908
1.7471,-0.0515,-0.4739,-64.3969,32.5115,16.1832
1.7671,-0.0508,-0.4851,-68.1527,35.313,12.0229
1.7874,-0.051,-0.4861,-71.9313,38.3893,7.7405
1.7913,-0.0474,-0.4863,-76.0382,41.6565,3.5344
1.7891,-0.0576,-0.4941,-80.4122,45.6565,-1.687
1.7773,-0.0581,-0.4893,-84.8855,48.8092,-6.5802
1.7739,-0.0649,-0.469,-89.5496,51.4962,-11.4122
1.76,-0.0647,-0.4353,-93.771,53.0763,-15.9924
1.7388,-0.0569,-0.405,-98.3893,53.5649,-20.687
1.7246,-0.0647,-0.3721,-102.5496,52.8702,-24.7786
1.7004,-0.0681,-0.3462,-106.458,51.6183,-28.4504
1.6792,-0.0693,-0.3018,-110.3206,49.0611,-32.3206
1.6699,-0.0742,-0.2849,-114.2137,45.2519,-35.4504
1.6465,-0.082,-0.2688,-117.0992,39.9389,-38.8931
1.6226,-0.0945,-0.2283,-120.6794,33.5496,-42.5878
1.6003,-0.1042,-0.2065,-124.1374,26.1908,-46.1603
1.5908,-0.106,-0.1653,-127.6031,17.855,-49.3969
1.5759,-0.1091,-0.1335,-131.2824,8.3435,-53.313
1.5703,-0.0994,-0.0872,-135.3282,-1.6947,-57.0
1.5747,-0.1001,-0.0598,-139.2137,-12.458,-60.6489
1.5735,-0.0916,-0.0393,-143.3282,-23.5725,-64.0229
1.5872,-0.0918,-0.0032,-146.9695,-35.2443,-67.458
1.6018,-0.0818,0.0271,-150.7939,-47.2061,-70.4427
1.6316,-0.0869,0.0598,-154.374,-59.6718,-73.4046
1.6699,-0.0845,0.0603,-157.6565,-72.2824,-76.1145
1.7126,-0.0994,0.0774,-160.8626,-83.9237,-78.7939
1.7683,-0.1099,0.0574,-163.8321,-95.2748,-81.145
1.8289,-0.1267,0.0371,-166.9008,-103.687,-84.2443
1.865,-0.1294,0.0344,-169.9237,-110.9695,-87.0
1.9368,-0.1472,0.0198,-172.7634,-117.9466,-91.5649
1.9999,-0.1594,0.0098,-175.916,-123.1832,-96.0534
1.9999,-0.1641,0.0044,-179.2824,-127.4275,-99.3969
1.9999,-0.1748,0.0171,-182.4504,-131.0458,-105.0992
1.9999,-0.1794,0.033,-185.8397,-134.0382,-111.229
1.9999,-0.187,0.0522,-189.0076,-136.5649,-117.2137
1.9999,-0.1936,0.0654,-192.3359,-138.855,-123.6183
1.9999,-0.2019,0.0684,-195.0305,-140.1221,-129.4504
1.9999,-0.2083,0.0776,-197.4809,-140.2901,-136.4122
1.9999,-0.228,0.0649,-199.771,-139.3512,-142.8779
1.9999,-0.2393,0.0774,-201.3282,-136.9389,-149.6031
1.9999,-0.2603,0.0747,-202.5114,-133.1985,-156.3588
1.9999,-0.2781,0.0725,-203.6183,-127.9008,-163.0992
1.9999,-0.2903,0.0806,-204.5114,-121.6794,-170.1221
1.9999,-0.313,0.0876,-205.0153,-114.4351,-177.1298
1.9999,-0.3213,0.1096,-205.2519,-107.0076,-184.5954
1.9999,-0.3279,0.1252,-205.2824,-98.7328,-191.8931
1.9999,-0.343,0.1553,-205.2214,-90.0916,-199.1221
1.9999,-0.3413,0.1875,-204.6947,-83.1374,-206.145
1.9999,-0.3342,0.2214,-203.687,-74.2214,-213.0916
1.9999,-0.335,0.2468,-202.5878,-65.9084,-219.6947
1.9999,-0.3308,0.2781,-201.1908,-57.2977,-225.7557
1.9999,-0.3147,0.3186,-199.3817,-49.4122,-230.9924
1.9999,-0.3108,0.3459,-197.3969,-40.9237,-235.6565
1.9999,-0.3137,0.3572,-195.5725,-34.0534,-239.458
1.9999,-0.3066,0.3992,-193.145,-27.5267,-243.2519
1.9999,-0.3042,0.4182,-190.8779,-21.855,-245.8015
1.9999,-0.3,0.4663,-188.0763,-16.1908,-249.1069
1.9999,-0.303,0.4802,-186.3053,-12.6412,-250.1374
1.9999,-0.2878,0.5178,-184.5573,-9.7863,-250.1374
1.9999,-0.2947,0.5444,-183.1985,-7.4733,-250.1374
1.9999,-0.2881,0.5869,-182.3359,-5.5878,-250.1374
1.9999,-0.2822,0.625,-181.5878,-5.0305,-250.1374
1.9999,-0.2861,0.6682,-180.9237,-5.1603,-250.1374
1.9999,-0.3069,0.7012,-180.8626,-5.6489,-250.1374
1.9999,-0.325,0.7424,-180.5649,-6.7634,-250.1374
1.9999,-0.3391,0.752,-180.5114,-7.5191,-250.1374
1.9999,-0.3511,0.7751,-179.8092,-8.7634,-250.1374
1.9999,-0.3696,0.811,-179.2977,-9.5496,-250.1374
1.9999,-0.4041,0.8335,-178.1527,-10.6565,-250.1374
1.9999,-0.4331,0.8643,-176.9771,-11.7252,-250.1374
1.9995,-0.4519,0.9001,-175.313,-12.7099,-250.1374
1.9999,-0.4722,0.9253,-173.4886,-14.1145,-250.1374
1.9999,-0.4905,0.9553,-171.5725,-15.1985,-250.1374
1.9951,-0.5042,0.9763,-169.3588,-16.3053,-250.1374
1.9827,-0.5378,1.0188,-166.9008,-18.5344,-250.1374
1.9685,-0.5688,1.0486,-164.3588,-20.5038,-250.1374
1.958,-0.6008,1.0779,-162.0763,-22.8092,-250.1374
1.9341,-0.6257,1.1069,-159.2443,-25.1756,-250.1374
1.9155,-0.6453,1.1328,-156.313,-27.6794,-250.1374
1.8933,-0.6575,1.165,-153.8473,-30.1832,-250.1374
1.8647,-0.679,1.1941,-150.7023,-31.9695,-250.1374
1.8391,-0.6985,1.2173,-147.0763,-33.7252,-250.1374
1.8218,-0.7029,1.2266,-143.4122,-35.5115,-250.1374
1.8044,-0.7283,1.2407,-139.4504,-36.1908,-250.1374
1.7703,-0.7288,1.2556,-134.9313,-36.084,-250.1374
1.741,-0.7473,1.2776,-130.2672,-35.6489,-250.1374
1.7092,-0.7483,1.29,-125.0916,-34.7328,-250.1374
1.6704,-0.7524,1.2949,-119.2214,-32.687,-250.1374
1.6326,-0.7622,1.3181,-113.0992,-30.1374,-250.1374
1.5967,-0.7644,1.3188,-106.6565,-26.855,-250.1374
1.5723,-0.7703,1.321,-99.6641,-22.8626,-250.1374
1.5369,-0.7703,1.3303,-91.9008,-18.2748,-250.1374
1.499,-0.7825,1.332,-83.5573,-12.7863,-250.1374
1.4592,-0.7854,1.3335,-75.2824,-6.4275,-250.1374
1.4136,-0.7886,1.3179,-66.5573,-0.0153,-250.1374
1.3828,-0.7847,1.3232,-57.0382,6.3282,-250.1374
1.3362,-0.7783,1.3237,-47.7939,13.2595,-250.1374
1.2959,-0.7749,1.3032,-38.0076,20.4122,-250.1374
1.2773,-0.772,1.2947,-28.7634,27.6412,-250.1374
1.2424,-0.7551,1.2681,-17.9618,36.8244,-250.1374
1.1943,-0.7422,1.2417,-7.5115,45.8779,-250.1374
1.1536,-0.7363,1.2207,2.4275,55.1069,-250.1374
1.1064,-0.7141,1.2021,12.6718,64.4275,-250.1374
1.0593,-0.6926,1.1877,22.4656,72.3435,-250.1374
0.9978,-0.6841,1.198,32.313,79.0611,-250.1374
0.9348,-0.6533,1.2043,41.6336,82.8626,-250.1374
0.8977,-0.613,1.1953,50.687,85.4657,-250.1374
0.8853,-0.6028,1.1775,59.084,88.6031,-250.1374
0.8203,-0.5876,1.1201,69.1221,92.687,-250.1374
0.7932,-0.5835,1.0608,76.8702,96.7252,-250.1374
0.7522,-0.5879,1.0205,84.2137,101.5725,-250.1374
0.73,-0.5845,1.0105,90.8931,105.2137,-250.1374
0.6794,-0.562,0.9973,97.9771,108.3664,-250.1374
0.6492,-0.5352,0.9778,104.8015,110.8779,-250.1374
0.5999,-0.5168,0.9607,111.6794,111.8626,-250.1374
0.5691,-0.4961,0.9343,118.5878,111.6107,-250.1374
0.5493,-0.4834,0.9104,123.9389,110.4657,-250.1374
0.5161,-0.4805,0.8618,129.8168,109.0992,-250.1374
0.4919,-0.4724,0.8257,135.1069,107.855,-250.1374
0.4558,-0.4707,0.7747,140.0763,106.4504,-250.1374
0.4451,-0.47,0.7607,144.4046,105.3664,-250.1374
0.4185,-0.468,0.707,148.2137,104.3817,-250.1374
0.3899,-0.4619,0.679,151.8702,103.1985,-250.1374
0.3611,-0.4373,0.6331,154.8015,101.8168,-250.1374
0.3369,-0.4182,0.6196,157.8397,100.2672,-250.1374
0.3159,-0.3943,0.5842,160.6488,98.542,-250.1374
0.2861,-0.3821,0.5483,162.8473,97.0,-250.1374
0.2585,-0.3635,0.5168,164.9389,95.4122,-250.1374
0.2476,-0.3533,0.4954,167.0534,94.0916,-250.1374
0.217,-0.3369,0.4758,168.855,92.7786,-250.1374
0.207,-0.3293,0.4331,170.5267,91.5878,-250.1374
0.1799,-0.3171,0.406,172.0534,90.6107,-250.1374
0.1658,-0.2961,0.3882,173.3512,89.9542,-250.1374
0.136,-0.2776,0.3591,174.6183,89.7252,-250.1374
0.1287,-0.269,0.324,175.687,89.9237,-250.1374
0.1172,-0.2539,0.2917,177.0153,90.6718,-250.1374
0.1113,-0.2588,0.2703,178.1298,91.6794,-250.1374
0.0962,-0.2451,0.2417,179.3664,93.5573,-250.1374
0.0828,-0.2471,0.2148,180.4809,95.0153,-250.1374
0.0774,-0.239,0.1719,182.0763,97.0,-250.1374
0.0657,-0.24,0.1538,183.1527,99.5496,-249.4657
0.0525,-0.2356,0.1194,184.6183,101.9618,-244.1298
0.0488,-0.2244,0.092,185.8931,104.9542,-238.7023
0.0322,-0.2253,0.0742,187.313,108.3282,-233.5496
0.0242,-0.2087,0.0486,188.6031,111.4427,-228.2443
0.0232,-0.2041,0.0508,190.0611,114.916,-222.9924
0.0125,-0.1895,0.0291,191.5725,118.6183,-217.9771
0.0015,-0.166,0.0327,193.1679,122.1603,-212.4198
-0.0063,-0.1421,0.0156,194.8168,126.1069,-207.4809
-0.0193,-0.1311,-0.0017,196.3435,129.9237,-202.7099
-0.0229,-0.1035,-0.0015,198.1527,133.8321,-197.7939
-0.0342,-0.1003,0.0005,199.9542,137.2748,-192.9542
-0.0459,-0.0894,-0.0112,202.0687,140.3588,-187.9924
-0.0491,-0.0879,-0.0161,204.0916,143.5343,-183.5954
-0.0645,-0.0837,-0.0261,206.0992,147.2443,-178.458
-0.0623,-0.0754,-0.0569,207.7481,150.9542,-173.8321
-0.0713,-0.0649,-0.0725,209.3969,155.1603,-169.1985
-0.0771,-0.0623,-0.093,211.542,159.4657,-164.5114
-0.0911,-0.051,-0.116,213.5038,163.9313,-159.5573
-0.0967,-0.0476,-0.1365,215.0687,168.7023,-154.6336
-0.1094,-0.0315,-0.1582,217.313,173.6412,-149.5878
-0.1213,-0.0261,-0.1707,218.9771,179.0534,-144.145
-0.1389,-0.0134,-0.1909,221.0305,185.2443,-137.6641
-0.1414,-0.0078,-0.1948,222.8244,191.4351,-131.7252
-0.1594,-0.0012,-0.2166,224.6565,197.0763,-125.4427
-0.1663,0.0063,-0.2202,226.6488,202.1069,-119.3817
-0.1843,0.0144,-0.2351,228.5802,207.687,-112.9084
-0.1965,0.0139,-0.2419,230.6412,212.4962,-106.2443
-0.2065,0.0112,-0.2585,232.9924,216.7786,-99.5802
-0.2178,0.0088,-0.2759,235.2748,220.4122,-93.7099
-0.2271,0.0044,-0.2935,237.6488,222.9924,-86.4733
-0.2356,0.0112,-0.2971,240.0076,224.687,-79.1145
-0.2505,0.0186,-0.3179,242.4733,226.1221,-72.771
-0.2627,0.0127,-0.3269,245.0916,226.6488,-66.1221
-0.2654,0.0107,-0.3218,247.687,225.2672,-59.8702
-0.2852,0.0063,-0.3425,250.1298,222.5878,-54.4656
-0.2942,0.0022,-0.3577,250.1298,218.4198,-49.2748
-0.3142,0.0015,-0.3652,250.1298,212.5496,-44.2672
-0.3311,0.0146,-0.3862,250.1298,205.1832,-39.6641
-0.3564,0.0295,-0.4182,250.1298,196.3282,-35.7786
-0.3711,0.0403,-0.4302,250.1298,186.4733,-31.5191
-0.3918,0.0483,-0.4517,250.1298,175.7863,-27.7863
-0.4004,0.0486,-0.4602,250.1298,163.7786,-24.0763
-0.4077,0.0476,-0.4961,250.1298,151.1221,-20.0763
-0.4263,0.0571,-0.5215,250.1298,138.0916,-16.2366
-0.4333,0.0667,-0.5566,250.1298,124.9389,-12.3893
-0.4358,0.0894,-0.584,250.1298,112.5725,-8.0382
-0.4353,0.1042,-0.6187,250.1298,100.2214,-3.3969
-0.4438,0.1184,-0.6335,250.1298,88.5038,1.0076
-0.4468,0.1484,-0.6748,250.1298,77.6183,5.5649
-0.4446,0.1602,-0.6792,250.1298,66.9389,10.7405
-0.4346,0.1851,-0.6975,250.1298,57.2901,16.0076
-0.4246,0.2112,-0.7126,250.1298,47.9924,21.1221
-0.4272,0.2119,-0.7415,250.1298,39.3817,26.3969
-0.4006,0.2126,-0.7778,250.1298,31.5802,32.0153
-0.3789,0.2234,-0.8044,247.7099,24.916,37.3664
-0.3535,0.2334,-0.8345,244.313,19.3435,43.4351
-0.3262,0.2468,-0.8706,241.4046,15.4962,49.2519
-0.2952,0.262,-0.8926,237.9008,12.5573,55.5954
-0.2771,0.2754,-0.9089,235.1069,11.6641,60.7634
-0.2554,0.2986,-0.9377,231.4275,11.855,67.0687
-0.2153,0.3142,-0.9502,228.0229,12.9084,72.8931
-0.1882,0.3364,-0.9702,224.7939,14.7252,78.0305
-0.1497,0.3506,-0.9722,220.9313,17.626,83.1679
-0.1138,0.3572,-1.0051,217.3817,21.8702,88.2214
-0.082,0.3608,-1.0149,213.4886,26.5114,92.771
-0.052,0.3552,-1.0398,209.687,31.9618,96.9695
-0.0283,0.3599,-1.0359,205.6641,37.9771,101.3893
-0.0215,0.3616,-1.0359,201.5878,44.0916,105.1069
0.0022,0.3589,-1.0356,197.4962,50.4504,108.6718
0.0237,0.3613,-1.0186,193.1832,57.084,112.5038
0.0417,0.3596,-1.022,188.9313,64.6412,116.1603
0.0591,0.3523,-1.0193,185.0458,71.9771,119.8397
0.0659,0.3538,-1.0029,181.1069,80.0992,123.5038
0.082,0.3464,-0.9895,177.3435,88.2672,127.1374
0.0889,0.3352,-0.9756,174.0,97.0763,131.2901
0.0937,0.3132,-0.9468,170.1985,107.1221,136.1832
0.0857,0.2959,-0.9133,167.6641,115.0534,140.6031
0.0896,0.2717,-0.8899,164.8244,123.8931,146.2214
0.0896,0.2488,-0.8499,162.771,130.0458,151.3053
0.0979,0.2332,-0.8159,161.0687,134.8626,156.1756
0.1167,0.2109,-0.7893,160.2748,137.9695,161.313
0.1282,0.1926,-0.7449,159.542,138.9313,166.4809
0.1379,0.1814,-0.73,159.626,138.3282,170.8702
0.1619,0.1633,-0.7195,160.2137,135.8244,175.3282
0.187,0.1506,-0.7019,160.8244,131.9008,178.313
0.2266,0.1484,-0.6899,161.4351,127.0687,180.1832
0.2534,0.1365,-0.7014,162.1832,122.5496,181.1069
0.2783,0.1306,-0.7227,163.1679,118.6565,180.9084
0.3022,0.1328,-0.7271,163.916,115.374,179.7328
0.3215,0.1433,-0.7263,164.6947,111.9084,177.7557
0.3303,0.1467,-0.7258,164.8092,108.0382,175.2595
0.3337,0.1628,-0.7107,165.0382,102.5878,172.5573
0.3298,0.1677,-0.7263,164.5343,97.687,169.1298
0.3303,0.1782,-0.718,163.6565,91.9542,165.9389
0.323,0.1821,-0.7344,162.7557,85.6565,162.5878
0.3118,0.1953,-0.7439,161.1756,79.3664,159.3512
0.2976,0.1914,-0.7546,159.1985,73.3511,156.3969
0.2805,0.1982,-0.7786,156.9771,68.084,153.9695
0.2561,0.2065,-0.7959,154.3893,64.1069,152.1221
0.2439,0.2131,-0.8113,152.1985,61.2901,151.145
0.2317,0.2302,-0.8384,149.9695,59.3969,150.9618
0.2161,0.2522,-0.8584,147.8702,59.1069,151.9389
0.1904,0.259,-0.8777,145.9466,59.687,154.0076
0.1765,0.2629,-0.908,144.0763,61.916,157.5191
0.1514,0.2595,-0.9272,142.4427,65.3359,161.9313
0.1497,0.2576,-0.9446,141.0382,70.0,167.1527
0.1396,0.261,-0.9788,139.4886,75.8855,173.9618
0.1328,0.2605,-0.9802,138.0076,82.6031,181.3893
0.1282,0.2524,-0.9878,136.3282,89.916,189.7023
0.1187,0.2441,-0.981,134.3664,98.1756,198.9237
0.1223,0.251,-0.9788,132.4733,106.2519,207.9695
0.1162,0.2454,-0.9685,130.5649,114.8931,217.1374
0.1284,0.2502,-0.9539,128.5343,123.1985,226.6412
0.1355,0.2383,-0.9451,126.5267,131.5267,235.9237
0.1577,0.2314,-0.9199,124.3969,139.4275,245.229
0.1746,0.2229,-0.8994,123.6489,146.6641,250.1298
0.1873,0.2205,-0.8933,120.3435,152.6718,250.1298
0.2209,0.2063,-0.8625,118.8626,157.2519,250.1298
0.2598,0.186,-0.8469,119.2748,160.4046,250.1298
0.3018,0.1692,-0.8345,119.0992,161.9466,250.1298
0.3464,0.1582,-0.8142,118.7023,162.9237,250.1298
0.3787,0.1516,-0.824,116.8855,163.4504,250.1298
0.4199,0.1521,-0.8225,116.6641,163.2214,250.1298
0.4658,0.1453,-0.8198,116.8244,162.1985,250.1298
0.4756,0.1462,-0.8191,115.9924,160.2977,250.1298
0.5137,0.1399,-0.8113,115.4504,156.2137,250.1298
0.5383,0.1431,-0.793,116.1985,150.1679,250.1298
0.5764,0.1384,-0.8054,115.0916,142.1298,250.1298
0.6133,0.1375,-0.8259,114.4122,132.5343,250.1298
0.6692,0.1497,-0.8335,113.6794,118.4046,250.1298
0.7029,0.1516,-0.8745,112.9771,107.542,250.1298
0.7598,0.1555,-0.9009,111.7176,94.2824,250.1298
0.8079,0.1558,-0.9399,109.7786,80.8855,250.1298
0.8555,0.1626,-0.9875,107.2214,70.0458,250.1298
0.8967,0.1628,-1.0444,104.0763,60.5725,250.1298
0.9319,0.1587,-1.1094,99.8092,52.9466,250.1298
0.9832,0.1826,-1.1558,95.0,46.7481,250.1298
1.0083,0.2166,-1.2117,89.4809,42.2519,250.1298
1.0452,0.2476,-1.2656,82.771,39.2595,250.1298
1.0642,0.2622,-1.3125,75.4504,37.9389,248.3435
1.0745,0.2595,-1.322,67.0611,37.3588,242.9542
1.0886,0.2542,-1.3547,58.0229,37.5038,237.9695
1.104,0.2505,-1.3857,48.1374,38.4656,233.7786
1.1199,0.2656,-1.3948,37.916,39.9466,229.9695
1.1226,0.2603,-1.4114,26.7939,41.8092,226.9389
1.1321,0.2439,-1.4099,16.1069,44.4122,224.3435
1.1523,0.2468,-1.3938,5.7099,46.9924,222.2977
1.1587,0.2319,-1.377,-4.8779,50.229,220.6794
1.1641,0.2412,-1.3718,-13.9618,54.2519,219.3664
1.1733,0.2437,-1.3513,-23.5496,60.2214,218.6565
1.1926,0.2319,-1.3142,-31.855,66.5802,218.1603
1.1975,0.2314,-1.2712,-39.1374,72.9924,217.6336
1.2087,0.2197,-1.2405,-45.0611,79.6794,217.4657
1.2117,0.2034,-1.2056,-50.0458,87.0,217.3664
1.2124,0.1895,-1.1724,-54.1985,94.8321,217.1374
1.2019,0.1694,-1.1545,-57.1603,103.4351,217.3282
1.2014,0.1565,-1.1389,-59.3359,111.4198,217.3893
1.1897,0.1433,-1.0835,-61.2061,120.1832,217.6794
1.1814,0.1377,-1.0386,-62.9466,127.6183,218.3359
1.168,0.1289,-0.9907,-64.0611,134.2214,219.2443
1.158,0.135,-0.9399,-65.3588,140.0992,220.2519
1.1514,0.1274,-0.8889,-66.8397,145.0611,221.6107
1.137,0.1328,-0.8391,-68.0763,149.4962,222.542
1.1348,0.1309,-0.7993,-69.8015,153.0763,223.3969
1.1296,0.1201,-0.7563,-71.5725,156.1679,224.2061
1.1289,0.1157,-0.7515,-73.2214,158.9618,224.7863
1.1238,0.1113,-0.717,-75.1374,161.6412,224.6336
1.1177,0.0967,-0.6794,-77.3511,164.0687,224.3817
1.1279,0.0845,-0.6514,-79.5038,165.7481,224.2214
1.1257,0.0608,-0.6248,-81.4504,167.0153,223.4809
1.1292,0.052,-0.5908,-83.3664,167.542,222.7023
1.1353,0.0315,-0.5552,-85.3969,166.8855,222.0
1.1377,0.0254,-0.5496,-86.8015,165.9237,221.1603
1.146,0.0171,-0.5337,-87.7863,164.1832,220.0916
1.1509,0.0168,-0.5168,-89.1832,161.9924,218.8473
1.1599,0.0078,-0.52,-89.9771,159.5802,217.6641
1.1636,0.0037,-0.5029,-90.9008,156.4427,216.2672
1.177,0.0039,-0.5005,-91.8931,152.7786,214.5878
1.1875,0.0078,-0.4919,-92.8397,148.8931,212.5114
1.1897,-0.0007,-0.4824,-94.1756,144.6641,210.0992
1.2017,0.0032,-0.4934,-96.1527,140.0916,207.3282
1.207,0.0049,-0.4849,-98.5343,135.3435,204.4427
1.2195,0.0083,-0.4829,-101.084,129.6718,200.6183
1.2351,0.0042,-0.4731,-105.1145,121.6336,195.9313
1.2537,0.0046,-0.4807,-108.7405,113.8931,192.0916
1.2739,0.0173,-0.4768,-112.6489,105.5267,188.3206
1.2856,0.0139,-0.4829,-116.3664,96.8702,184.3893
1.3137,0.0264,-0.4841,-120.2595,87.4504,180.3817
1.3391,0.0271,-0.4885,-125.0076,77.4427,176.2977
1.375,0.0339,-0.5017,-129.0687,69.3282,171.6336
1.4067,0.0396,-0.5151,-133.7099,61.9771,166.9389
1.4387,0.0383,-0.5342,-138.1298,55.6641,162.0305
1.469,0.0325,-0.5386,-142.8397,50.3969,156.8321
1.4905,0.0308,-0.5361,-147.7557,46.1985,151.7634
1.5024,0.0254,-0.5422,-152.3206,43.626,146.8168
1.519,0.019,-0.5415,-157.3512,41.3969,141.2061
1.5308,0.0186,-0.5249,-161.8321,40.6336,136.2366
1.5342,0.0085,-0.5371,-166.0611,41.2595,131.2366
1.5303,-0.0051,-0.5195,-169.6031,43.4656,126.8244
1.5208,-0.0161,-0.5164,-172.6718,46.6336,122.6947
1.5029,-0.0254,-0.5071,-175.1908,50.6107,119.8626
1.4861,-0.0288,-0.4836,-177.0153,55.1756,117.3893
1.4626,-0.0381,-0.4639,-178.3053,59.5344,115.8321
1.4536,-0.0371,-0.4587,-179.3588,64.1527,115.4504
1.4292,-0.0498,-0.448,-180.0916,68.8244,115.855
1.4128,-0.0588,-0.4292,-180.8015,73.3817,116.6107
1.3999,-0.0649,-0.4111,-181.2214,77.4275,118.2443
1.3918,-0.0571,-0.3958,-181.7252,82.2061,120.2061
1.3789,-0.0559,-0.3845,-181.7252,87.1756,121.8473
1.3813,-0.0664,-0.3679,-182.4504,92.1374,123.4198
1.3718,-0.0654,-0.355,-182.6641,97.1221,124.8626
1.3728,-0.0613,-0.3481,-183.1527,101.771,125.7481
1.3792,-0.0625,-0.3186,-183.4122,106.6794,125.9542
1.3857,-0.0747,-0.2947,-184.229,111.084,126.0305
1.3843,-0.0859,-0.2683,-184.4504,115.2672,125.5649
1.3857,-0.1006,-0.2458,-184.7405,119.8321,124.0687
1.3853,-0.113,-0.218,-184.6031,123.4809,122.7099
1.3772,-0.124,-0.2009,-184.3893,126.9084,120.6336
1.3706,-0.1294,-0.1726,-184.1069,129.687,118.2443
1.3755,-0.1274,-0.1619,-183.7023,131.9466,116.1374
1.3608,-0.1272,-0.1304,-182.9084,134.0458,113.3817
1.3518,-0.124,-0.1062,-182.0687,136.0076,110.7405
1.3472,-0.114,-0.0815,-181.2977,137.5878,108.2366
1.3418,-0.1223,-0.0718,-180.4198,139.3206,105.5725
1.3242,-0.1294,-0.0474,-179.5496,140.7939,103.8626
1.3113,-0.1267,-0.0425,-178.771,142.1832,101.7405
1.2942,-0.1282,-0.0232,-177.9924,143.1298,99.2061
1.2861,-0.1243,-0.0227,-177.4809,143.7252,97.6107
1.2756,-0.1311,0.0098,-176.8702,143.7252,95.7099
1.261,-0.1318,0.0349,-176.4046,143.0153,94.3817
1.2568,-0.1384,0.0454,-175.7405,141.5725,93.3817
1.2346,-0.1445,0.0813,-175.4427,139.9084,91.8168
1.2222,-0.1509,0.0925,-175.0153,138.0992,90.3969
1.2168,-0.1792,0.124,-174.5343,135.4962,88.7557
1.2007,-0.2051,0.1387,-174.3282,131.7786,87.3206
1.1885,-0.2185,0.1655,-174.0153,127.313,86.0076
1.1853,-0.2214,0.1924,-173.374,121.8473,84.8473
1.1887,-0.2207,0.2383,-172.6107,113.5878,82.8473
1.2021,-0.2197,0.2673,-171.7481,106.542,81.8168
1.2029,-0.2112,0.2942,-170.1221,98.7863,80.4885
1.2097,-0.2136,0.3008,-168.2214,91.1221,79.0992
1.2285,-0.2004,0.3381,-166.1145,82.9237,77.7252
1.2498,-0.2017,0.3447,-163.6565,75.0229,75.9008
1.2756,-0.1992,0.3418,-161.0458,67.7405,74.4809
1.3057,-0.2036,0.3547,-158.3206,61.0611,72.2672
1.3335,-0.2056,0.3582,-155.4275,54.6336,70.313
1.355,-0.2119,0.3467,-152.6718,49.0229,67.6489
1.3936,-0.2119,0.3384,-150.1603,44.2366,64.9008
1.4077,-0.2107,0.3435,-147.7405,40.5191,62.4809
1.4277,-0.2083,0.3276,-145.1679,37.2595,59.2595
1.4468,-0.2004,0.3228,-142.9618,34.3053,56.2824
1.4658,-0.207,0.3247,-140.9389,31.5649,53.1221
1.4873,-0.196,0.3286,-139.0229,29.2901,50.0229
1.4907,-0.1956,0.3232,-137.3053,26.7634,46.9389
1.4983,-0.1919,0.3159,-135.5878,24.8168,43.8626
1.499,-0.1802,0.3235,-134.0916,23.0763,41.0992
1.5059,-0.1855,0.3218,-132.7099,21.6718,37.6794
1.5027,-0.1812,0.3069,-131.4122,20.6794,34.8779
1.4988,-0.1807,0.3076,-129.8397,20.1603,32.5191
1.4956,-0.1809,0.3193,-128.5114,19.5191,30.0763
1.489,-0.1807,0.3142,-127.2061,18.8779,27.9237
1.4795,-0.1714,0.3218,-126.1756,18.1832,26.4656
1.4788,-0.1753,0.3267,-124.9389,17.6489,24.626
1.4744,-0.1746,0.3247,-124.0382,17.1374,23.313
1.4734,-0.1743,0.334,-123.0229,17.2137,22.5038
1.4744,-0.1704,0.3203,-121.9389,17.2824,21.3588
1.4709,-0.1785,0.3174,-121.084,18.084,20.1832
1.467,-0.1909,0.3206,-119.7863,19.5191,19.3282
1.47,-0.2051,0.3174,-118.7939,21.2748,18.374
1.4644,-0.2095,0.3242,-118.0611,23.0992,17.3053
1.4641,-0.2241,0.3318,-116.8092,24.8092,16.3359
1.4568,-0.2314,0.3486,-115.6412,26.1603,15.7405
1.4526,-0.2368,0.3662,-114.4733,27.4351,14.4962
1.4502,-0.2441,0.3816,-113.3969,28.0534,13.3969
1.4441,-0.248,0.4082,-111.4962,28.687,12.6565
1.4404,-0.2493,0.4199,-109.7023,28.8244,11.6565
1.4268,-0.2585,0.4409,-107.8626,29.0458,10.1756
1.4182,-0.2671,0.4729,-105.7176,28.8397,9.0458
1.4058,-0.2744,0.479,-103.4657,28.3969,7.855
1.3943,-0.2764,0.5083,-100.8244,27.6183,6.5573
1.3833,-0.2798,0.5391,-98.2748,26.3664,5.2137
1.3711,-0.2788,0.5601,-95.5115,24.4656,3.6565
1.366,-0.2881,0.5586,-92.5573,22.2977,2.0611
1.3555,-0.2881,0.5759,-89.5878,20.374,0.8015
1.3445,-0.2747,0.5911,-86.2214,17.5573,-0.2824
1.3374,-0.2712,0.6069,-82.7328,15.3664,-1.9008
1.3347,-0.262,0.6218,-79.2672,13.1298,-2.7252
1.3262,-0.2654,0.6255,-75.4885,11.0,-3.458
1.3213,-0.262,0.6323,-72.0305,8.6412,-4.458
1.3274,-0.2605,0.6309,-67.9084,6.3359,-5.4046
1.3315,-0.261,0.6321,-64.145,4.3664,-5.8626
1.332,-0.262,0.6211,-59.9924,2.2595,-6.6641
1.3318,-0.2473,0.6274,-56.2748,0.4885,-7.3893
1.3403,-0.25,0.6169,-52.626,-1.145,-7.8702
1.3499,-0.2375,0.6111,-49.458,-2.4198,-9.0611
1.3616,-0.2361,0.6033,-46.1679,-3.0076,-9.9847
1.3633,-0.2312,0.5862,-43.229,-3.542,-11.2519
1.3726,-0.2227,0.5776,-40.2977,-3.6107,-12.7176
1.3767,-0.2205,0.5737,-37.6107,-3.7023,-14.3969
1.3799,-0.2234,0.5559,-35.084,-3.4733,-16.3664
1.3777,-0.2241,0.5391,-32.626,-3.1145,-18.2595
1.3809,-0.2144,0.5229,-30.3664,-2.7405,-20.4275
1.3787,-0.2068,0.5205,-28.2443,-2.084,-22.5191
1.363,-0.2048,0.4995,-26.0916,-1.5267,-24.6718
1.3496,-0.197,0.4783,-24.1908,-0.4275,-26.7557
1.3271,-0.1953,0.459,-22.084,0.9084,-28.8702
1.2952,-0.1985,0.4397,-20.2443,2.3206,-30.4122
1.2783,-0.1956,0.4316,-18.4733,3.7481,-32.0382
1.2495,-0.1912,0.4109,-16.4809,5.2901,-33.2061
1.2107,-0.1829,0.3999,-15.1069,6.3969,-33.8931
1.1777,-0.1743,0.3879,-13.7557,6.8702,-33.6641
1.1514,-0.1655,0.3738,-12.5878,6.9008,-32.9466
1.1248,-0.1558,0.3657,-11.1527,6.7634,-31.9618
1.1006,-0.1396,0.3521,-10.1145,6.145,-30.0305
1.0789,-0.1387,0.3491,-9.5267,5.7557,-28.1221
1.0754,-0.1379,0.343,-8.7252,5.8168,-25.9847
1.0588,-0.1414,0.3264,-8.3893,6.229,-23.9084
1.0479,-0.1423,0.3032,-7.9084,6.1221,-21.6565
1.0347,-0.1477,0.2996,-7.5496,6.4122,-19.5573
1.0281,-0.1472,0.2898,-7.3511,6.542,-17.2672
1.0261,-0.1511,0.2839,-7.0534,6.2214,-15.2137
1.0125,-0.1414,0.2925,-6.6565,5.7023,-13.2595
1.0146,-0.1396,0.2947,-6.4504,4.855,-11.229
1.0168,-0.137,0.3054,-5.7405,3.2901,-9.5344
1.0198,-0.1357,0.301,-5.3664,2.3282,-8.3588
1.0139,-0.1299,0.3027,-4.7786,0.9084,-7.1374
1.0293,-0.1326,0.3086,-4.1221,-0.687,-5.7939
1.0305,-0.1458,0.3054,-3.0992,-2.4275,-4.7405
1.0442,-0.1504,0.2932,-1.9695,-3.7939,-4.3511
1.0571,-0.1504,0.2979,-0.9008,-5.3359,-4.084
1.0596,-0.1558,0.2927,0.5878,-6.9084,-4.0763
1.0645,-0.1509,0.2917,1.8855,-8.2366,-4.6489
1.0796,-0.1528,0.2817,3.2366,-9.7481,-4.9542
1.0828,-0.147,0.2893,4.7863,-11.3817,-5.7328
1.0901,-0.1406,0.2681,6.1832,-12.5115,-6.5802
1.0933,-0.1372,0.2598,7.3817,-13.7557,-7.2672
1.093,-0.1326,0.2456,8.3969,-15.2137,-8.2061
1.104,-0.1221,0.2397,9.0382,-16.3588,-9.0
1.0967,-0.1165,0.2236,9.9847,-17.1756,-9.7939
1.0959,-0.1196,0.1975,10.3435,-17.8168,-10.3817
1.1047,-0.106,0.1941,10.8626,-18.4733,-10.9389
1.0957,-0.1113,0.1748,10.9542,-18.9542,-11.7099
1.0991,-0.1021,0.1643,10.8702,-19.6412,-12.3206
1.0979,-0.0996,0.1436,11.0611,-19.8015,-12.4427
1.0991,-0.0862,0.136,10.6718,-19.8931,-12.8397
1.1011,-0.0825,0.124,10.3893,-19.5954,-13.458
1.0994,-0.0806,0.1179,9.8779,-19.2977,-13.4122
1.0994,-0.0774,0.0933,9.1527,-18.6565,-13.9924
1.1006,-0.072,0.0769,8.7328,-18.229,-14.0229
1.1052,-0.0681,0.0715,8.0076,-17.7023,-14.0611
1.1035,-0.0737,0.0698,7.3359,-17.0992,-14.229
1.1067,-0.0759,0.0664,6.3359,-16.3588,-14.6107
1.1094,-0.0686,0.0588,5.7634,-15.2748,-15.1298
1.1052,-0.0649,0.0588,4.9847,-14.7176,-15.6489
1.1003,-0.0669,0.0554,4.1374,-13.8168,-15.9313
1.1025,-0.0725,0.0537,3.4427,-12.916,-16.313
1.1003,-0.0767,0.051,2.9237,-11.8855,-17.0
1.095,-0.0779,0.0503,2.3893,-10.6641,-17.6412
1.0852,-0.0811,0.0378,2.0916,-9.229,-18.4122
1.0767,-0.0842,0.0422,2.0458,-7.5954,-19.2137
1.0659,-0.0864,0.0491,1.9237,-5.9771,-19.9771
1.0483,-0.0903,0.0518,2.0611,-4.7634,-20.3893
1.0298,-0.0869,0.0496,2.2443,-4.0076,-20.4046
1.0188,-0.0916,0.0603,2.6107,-3.1221,-20.4656
1.0049,-0.0879,0.0752,2.8931,-3.0992,-19.9695
0.9846,-0.0776,0.0698,3.1908,-3.0916,-19.2214
0.9773,-0.0796,0.0706,3.4733,-3.4733,-18.626
0.9712,-0.0847,0.0784,4.0305,-4.0992,-17.626
0.9565,-0.083,0.0784,4.4504,-4.687,-16.3817
0.9526,-0.0886,0.0806,5.0916,-5.458,-15.2595
0.9453,-0.092,0.0823,5.4122,-5.9771,-14.4351
0.9485,-0.0935,0.0823,6.4198,-6.2748,-13.3206
0.9536,-0.0947,0.0615,6.6794,-6.6412,-12.2443
0.9426,-0.0974,0.0596,7.3817,-6.916,-11.4733
0.9434,-0.093,0.0588,8.2519,-7.0076,-10.3664
0.9456,-0.0986,0.0574,8.9008,-7.3817,-9.313
0.9524,-0.0935,0.0535,9.3893,-7.7023,-8.6107
0.9548,-0.0835,0.0576,10.1832,-8.3282,-7.5191
0.9583,-0.0791,0.0515,10.9008,-9.374,-6.9389
0.9646,-0.0864,0.05,11.3435,-10.0229,-6.3282
0.9651,-0.0837,0.0298,11.7939,-10.8244,-5.7939
0.969,-0.0903,0.0195,12.0076,-11.5725,-5.3282
0.9802,-0.0876,0.0171,12.4275,-12.145,-5.0916
0.9907,-0.0845,0.0012,12.7099,-12.6794,-4.7481
0.9983,-0.0801,-0.0042,12.8092,-12.7481,-4.7557
1.0095,-0.0728,-0.0105,12.6107,-13.2137,-4.542
1.0132,-0.074,-0.009,12.6947,-13.2901,-4.7099
1.0237,-0.063,-0.0173,12.4122,-13.5191,-4.458
1.0342,-0.0652,-0.0288,12.2748,-13.6565,-4.7786
1.0369,-0.0642,-0.0354,12.1298,-14.0611,-5.4351
1.0461,-0.0542,-0.0396,11.7023,-13.7099,-5.6718
1.0527,-0.0554,-0.043,11.084,-13.4351,-5.5496
1.0601,-0.0605,-0.0642,10.8015,-12.8931,-6.374
1.0618,-0.0557,-0.063,10.2672,-12.3282,-6.7099
1.0669,-0.0605,-0.0637,9.7252,-11.1908,-6.8779
1.0757,-0.0527,-0.0818,9.2901,-10.2824,-7.7099
1.0715,-0.0488,-0.0757,8.458,-9.2061,-8.2366
1.0764,-0.052,-0.0754,7.7863,-7.8473,-8.3969
1.0735,-0.0483,-0.0725,6.916,-6.9542,-9.3282
1.0706,-0.0476,-0.0645,6.1756,-6.1221,-9.6947
1.072,-0.05,-0.0547,5.2824,-5.1374,-10.313
1.0627,-0.0493,-0.0581,4.3359,-4.6336,-11.2443
1.0627,-0.0454,-0.0574,4.2214,-4.2061,-11.8779
1.0537,-0.0505,-0.041,4.0,-3.9237,-12.4046
1.0466,-0.0503,-0.0408,3.9313,-3.1679,-13.0916
1.033,-0.0557,-0.0356,3.6718,-2.5725,-13.2824
1.0259,-0.0544,-0.0334,3.6565,-1.6794,-13.5344
1.0208,-0.0601,-0.0286,3.6489,-0.6641,-13.9008
1.0181,-0.051,-0.0298,3.8626,-0.3359,-14.1832
1.0063,-0.0486,-0.0283,4.313,0.4733,-13.4733
0.991,-0.0466,-0.0171,4.5344,0.4809,-12.9237
0.9883,-0.0471,-0.0222,4.9008,0.687,-12.5344
0.9753,-0.0466,-0.02,4.9695,0.7557,-11.5878
0.9741,-0.054,-0.0122,5.2748,0.9008,-10.8092
0.9707,-0.0469,-0.0176,5.4351,0.771,-10.0534
0.9707,-0.0532,-0.0078,5.6107,0.4809,-9.2366
0.9673,-0.0525,-0.0093,5.4885,0.0458,-8.2901
0.9678,-0.0518,-0.0117,5.5496,-0.2672,-7.7252
0.968,-0.052,0.002,5.6718,-0.4198,-7.3053
0.9695,-0.0483,-0.0029,6.0992,-0.855,-6.8092
0.9709,-0.0605,-0.0046,6.542,-0.9771,-6.4656
0.9614,-0.0696,-0.0176,6.8397,-1.0382,-6.2748
0.9666,-0.072,-0.0254,7.0992,-1.3206,-5.9924
0.9653,-0.0767,-0.0291,7.5115,-1.4351,-5.8473
0.9653,-0.0718,-0.0288,7.771,-2.1374,-5.4198
0.9614,-0.061,-0.0293,7.8702,-3.3893,-4.2214
0.9626,-0.0637,-0.0239,7.9771,-4.7176,-3.7099
0.9719,-0.0544,-0.0181,8.084,-6.2443,-2.7634
0.978,-0.0549,-0.0312,7.7557,-7.4046,-1.9313
0.9814,-0.0535,-0.0471,7.6489,-8.374,-0.9695
0.9932,-0.0557,-0.0525,7.2824,-9.0076,0.0305
0.9988,-0.0591,-0.064,6.9389,-9.7023,0.2061
1.001,-0.0623,-0.0645,6.0916,-10.0382,0.3817
1.0134,-0.0596,-0.0659,5.5802,-11.0458,0.6794
1.0225,-0.0654,-0.0723,5.1603,-11.8779,0.6031
1.0271,-0.051,-0.0703,4.626,-12.7252,0.3969
1.0361,-0.0593,-0.0662,3.916,-13.8092,0.313
1.041,-0.0488,-0.0745,3.374,-14.5191,-0.3359
1.0522,-0.0498,-0.0649,2.6336,-15.4656,-0.7786
1.0615,-0.0454,-0.0698,1.9466,-16.1145,-1.2901
1.0625,-0.0488,-0.0732,1.1756,-16.1756,-1.8321
1.0732,-0.0491,-0.0664,0.4733,-16.2443,-2.1985
1.0811,-0.0518,-0.0669,-0.0229,-16.0916,-2.4962
1.0791,-0.0496,-0.0647,-0.6947,-15.5115,-3.3511
1.0923,-0.0488,-0.0671,-1.3053,-14.771,-3.7634
1.0977,-0.0471,-0.0645,-1.7557,-13.9389,-4.2214
1.0945,-0.0471,-0.0613,-2.1527,-12.6641,-4.5878
1.0999,-0.0469,-0.0542,-2.4733,-11.8473,-5.0229
1.0947,-0.0481,-0.0464,-2.771,-10.6336,-5.2595
1.1018,-0.0537,-0.0417,-3.0763,-9.1374,-5.2901
1.0962,-0.0552,-0.0476,-3.1374,-8.0611,-5.626
1.0938,-0.0552,-0.0342,-3.3359,-6.7557,-5.6947
1.0955,-0.054,-0.0388,-3.3817,-5.1221,-5.9008
1.092,-0.0544,-0.0295,-3.3893,-3.7634,-5.687
1.0881,-0.0505,-0.0229,-3.3359,-2.2672,-5.6794
1.0942,-0.0471,-0.0242,-3.2366,-0.3206,-5.3664
1.084,-0.0525,-0.0181,-3.2137,1.4427,-5.4351
1.0854,-0.062,-0.0073,-2.8244,2.8702,-5.374
1.085,-0.0576,0.0059,-2.7099,3.9771,-5.0534
1.0811,-0.0657,-0.001,-2.3969,4.9771,-5.4504
1.0684,-0.0701,0.001,-1.8244,5.9695,-5.8015
1.0632,-0.0674,0.009,-1.2672,6.6641,-5.6794
1.0605,-0.0779,0.019,-0.9237,6.9237,-5.9313
1.0586,-0.0703,0.0142,-0.4809,7.0305,-6.2214
1.05,-0.0715,0.0288,0.374,6.7557,-6.6794
