ax,ay,az,gx,gy,gz
1.4094,-0.1484,-0.4624,-20.6794,84.3206,98.6412
1.4622,-0.1516,-0.4839,-23.2672,82.0382,97.1221
1.5186,-0.1584,-0.5037,-25.5954,79.1908,95.1145
1.5718,-0.1577,-0.53,-28.5191,75.8244,92.3664
1.6404,-0.1558,-0.5715,-31.7328,73.0382,89.687
1.6733,-0.1538,-0.5828,-35.2061,68.9771,87.0076
1.7356,-0.1497,-0.6248,-39.7939,65.7863,83.3588
1.7983,-0.1462,-0.6799,-44.3359,65.1374,78.7786
1.8655,-0.1558,-0.7219,-49.7863,64.5878,74.1679
1.9175,-0.1584,-0.7698,-55.3664,64.6336,68.7405
1.9705,-0.1648,-0.8152,-61.6489,64.7176,62.9847
1.9999,-0.1824,-0.835,-68.5954,64.9008,57.1298
1.9999,-0.1826,-0.8403,-76.0,63.9924,50.6718
1.9999,-0.1699,-0.8403,-85.7252,62.6489,42.5115
1.9999,-0.1628,-0.8381,-94.4657,61.1832,35.3359
1.9999,-0.157,-0.8428,-103.1145,59.9237,28.0763
1.9999,-0.1482,-0.8455,-112.2137,58.771,20.7099
1.9999,-0.1479,-0.834,-121.0,58.2824,13.1145
1.9999,-0.1462,-0.8252,-130.2214,57.8702,5.3893
1.9999,-0.1489,-0.8098,-139.4962,57.855,-2.5725
1.9999,-0.1597,-0.7917,-148.0992,58.1679,-10.4962
1.9999,-0.1763,-0.7632,-156.7099,57.9924,-18.2824
1.9999,-0.1797,-0.7104,-165.8931,57.5573,-26.6489
1.9999,-0.1836,-0.6855,-173.6565,57.2748,-33.8855
1.9999,-0.1877,-0.6587,-180.9008,57.3664,-40.9542
1.9999,-0.1914,-0.6172,-187.7786,58.374,-47.8244
1.9999,-0.1926,-0.6008,-193.7099,59.5649,-54.0305
1.9999,-0.2041,-0.5693,-200.0687,61.542,-61.4885
1.9999,-0.2085,-0.5425,-205.9237,64.0611,-68.0992
1.9999,-0.2214,-0.5007,-211.2748,66.8244,-74.7099
1.9999,-0.2422,-0.4568,-216.4275,69.4351,-81.1069
1.9999,-0.252,-0.3992,-221.4809,71.8473,-87.4962
1.9999,-0.2673,-0.3437,-226.145,74.229,-95.0916
1.9999,-0.2532,-0.2957,-230.4427,75.855,-99.4962
1.9999,-0.2622,-0.2759,-234.0305,77.9466,-105.1908
1.9999,-0.2815,-0.1975,-238.0992,78.4351,-111.7176
1.9999,-0.3127,-0.1482,-241.3969,78.6412,-117.4198
1.9999,-0.3359,-0.1038,-244.7328,78.8244,-123.1603
1.9999,-0.3562,-0.0522,-247.5573,78.4275,-129.2519
1.9999,-0.3835,-0.019,-249.9924,78.4427,-135.1221
1.9999,-0.4055,0.0422,-250.1374,78.4962,-141.687
1.9999,-0.4268,0.0737,-250.1374,78.3588,-148.3435
1.9999,-0.4465,0.1277,-250.1374,77.7634,-154.771
1.9999,-0.4609,0.1448,-250.1374,76.9771,-161.6794
1.9999,-0.4788,0.175,-250.1374,75.7405,-168.0687
1.9999,-0.5051,0.2146,-250.1374,73.6794,-174.8855
1.9999,-0.5432,0.2429,-250.1374,71.2901,-181.6718
1.9999,-0.5662,0.2517,-250.1374,68.5496,-188.5191
1.9999,-0.5771,0.2771,-250.1374,65.1298,-195.6488
1.9999,-0.5728,0.3264,-250.1374,61.1221,-202.3359
1.9999,-0.574,0.3608,-250.1374,56.8015,-209.4809
1.9999,-0.5798,0.3896,-250.1374,51.7023,-216.1374
1.9999,-0.5823,0.4272,-250.1374,45.1527,-222.6412
1.9999,-0.6084,0.4536,-250.1374,38.542,-229.5114
1.9999,-0.6326,0.4753,-250.1374,31.7786,-236.1374
1.9999,-0.6687,0.4958,-250.1374,24.4427,-242.7405
1.9999,-0.6748,0.5247,-250.1374,16.7328,-250.0153
1.9999,-0.6799,0.5549,-250.1374,9.6489,-250.1374
1.9999,-0.6936,0.5808,-250.1374,2.4427,-250.1374
1.9999,-0.6875,0.5908,-250.1374,-3.5725,-250.1374
1.9999,-0.697,0.6057,-250.1374,-8.8015,-250.1374
1.9999,-0.6924,0.6045,-250.1374,-12.5649,-250.1374
1.9999,-0.7095,0.6003,-250.1374,-14.0153,-250.1374
1.9999,-0.7195,0.6011,-250.1374,-14.2061,-250.1374
1.9999,-0.7522,0.5979,-250.1374,-12.7481,-250.1374
1.9999,-0.7732,0.5959,-250.1374,-10.2595,-250.1374
1.9999,-0.8086,0.6165,-250.1374,-6.5649,-250.1374
1.9999,-0.8345,0.6311,-250.1374,-0.4198,-250.1374
1.9999,-0.8376,0.6511,-250.1374,6.2672,-250.1374
1.9999,-0.8425,0.6792,-250.1374,13.0458,-250.1374
1.9999,-0.8713,0.7268,-250.1374,19.9008,-250.1374
1.9999,-0.8818,0.751,-250.1374,25.9389,-250.1374
1.9999,-0.9075,0.8076,-246.6794,32.5344,-250.1374
1.9922,-0.9309,0.8538,-242.0992,37.9924,-250.1374
1.9187,-0.9443,0.8877,-236.4962,43.0534,-250.1374
1.8479,-0.9373,0.915,-230.1298,47.7405,-250.1374
1.7698,-0.9302,0.9204,-222.8626,52.0687,-250.1374
1.6975,-0.9346,0.9199,-215.4733,56.4504,-250.1374
1.6306,-0.9514,0.9336,-207.8473,60.7099,-250.1374
1.5598,-0.9446,0.9553,-200.5725,64.4962,-250.1374
1.5254,-0.9392,0.96,-193.3969,67.8244,-250.1374
1.4717,-0.9451,0.9492,-186.374,71.4427,-250.1374
1.3911,-0.946,0.9741,-179.1603,74.3969,-250.1374
1.3379,-0.9363,1.0015,-172.5191,76.4504,-250.1374
1.2773,-0.9202,1.0403,-166.1985,77.9847,-250.1374
1.2175,-0.906,1.0737,-159.9618,77.8168,-250.1374
1.1704,-0.8735,1.0935,-154.0458,77.313,-250.1374
1.1218,-0.8623,1.1287,-148.1069,76.2137,-250.1374
1.0945,-0.8569,1.1619,-142.5649,74.458,-250.1374
1.0676,-0.8372,1.1909,-136.0076,72.0687,-250.1374
1.0349,-0.8262,1.2024,-130.0229,69.4885,-250.1374
1.019,-0.8169,1.2222,-123.771,66.4657,-250.1374
1.0103,-0.8081,1.2278,-117.4504,63.7405,-250.1374
0.9956,-0.8015,1.2405,-110.687,61.4656,-250.1374
0.99,-0.7993,1.2373,-104.3359,58.9466,-250.1374
0.9929,-0.8052,1.2437,-97.7176,56.9695,-250.1374
0.9822,-0.8,1.2517,-91.4427,55.2519,-250.1374
0.9836,-0.7954,1.2607,-84.5573,53.855,-250.1374
0.9841,-0.7834,1.2668,-78.0611,52.6107,-250.1374
0.9802,-0.7744,1.2666,-71.3893,51.0992,-250.1374
0.9753,-0.77,1.2769,-65.2519,49.1832,-250.1374
0.9883,-0.7546,1.2915,-58.9389,47.7099,-250.1374
1.0007,-0.7395,1.291,-52.4809,46.0687,-250.1374
1.0005,-0.7341,1.2939,-46.2748,44.8855,-250.1374
1.0161,-0.7227,1.2837,-40.2061,44.2519,-250.1374
1.0251,-0.717,1.281,-34.2443,44.4885,-250.1374
1.0237,-0.6987,1.2771,-28.2748,45.626,-250.1374
1.0356,-0.6858,1.2686,-22.4351,47.8244,-250.1374
1.0381,-0.679,1.2456,-16.8397,51.229,-250.1374
1.0488,-0.6892,1.2256,-10.8473,55.9389,-250.1374
1.0388,-0.7021,1.2004,-5.0458,61.5344,-250.1374
1.0256,-0.6992,1.2117,0.626,67.1374,-250.1374
1.0078,-0.6938,1.2,6.4427,73.2061,-250.1374
0.9719,-0.6821,1.2061,12.313,79.2443,-250.1374
0.9521,-0.6694,1.2056,19.0763,85.3817,-250.1374
0.9102,-0.6533,1.2097,25.6107,91.145,-250.1374
0.8625,-0.6372,1.2134,32.5496,96.3588,-250.1374
0.8125,-0.6191,1.2126,39.5954,101.1679,-250.1374
0.7678,-0.6121,1.2119,47.2595,104.8244,-250.1374
0.7234,-0.5981,1.2056,54.5573,108.2214,-250.1374
0.6772,-0.5852,1.1865,61.8015,110.5038,-250.1374
0.6348,-0.5735,1.1619,71.6489,112.5802,-250.1374
0.6106,-0.5781,1.1189,79.2061,113.6794,-250.1374
0.5823,-0.5632,1.0801,86.2977,114.4809,-250.1374
0.5581,-0.5444,1.0427,93.2443,114.9008,-250.1374
0.5391,-0.5256,1.0061,99.7328,115.2214,-250.1374
0.5354,-0.5222,0.9834,106.0229,115.2214,-250.1374
0.5186,-0.5022,0.9497,112.2443,114.9466,-250.1374
0.5168,-0.4717,0.8918,117.3359,114.6183,-250.1374
0.5042,-0.4465,0.854,122.4427,114.3206,-250.1374
0.4968,-0.418,0.8157,126.6183,113.6412,-250.1374
0.4868,-0.3982,0.7695,130.9008,112.7252,-250.1374
0.479,-0.3711,0.7375,134.3435,112.0763,-250.1374
0.4824,-0.343,0.6992,137.0229,111.1145,-250.1374
0.4756,-0.3179,0.6689,139.8168,110.084,-250.1374
0.4653,-0.3081,0.6487,141.9542,109.0076,-250.1374
0.4578,-0.3015,0.6216,143.542,107.7176,-250.1374
0.4446,-0.2744,0.5967,145.3053,106.3664,-250.1374
0.4285,-0.2629,0.5642,146.313,104.6412,-250.1374
0.4136,-0.2488,0.5535,147.4198,103.1679,-250.1374
0.3865,-0.2358,0.519,148.2824,101.4046,-250.1374
0.3535,-0.2222,0.5281,149.2137,99.6183,-250.1374
0.3394,-0.2061,0.5203,150.1221,97.4046,-250.1374
0.3303,-0.1953,0.5173,151.1069,95.3282,-250.1374
0.2893,-0.1792,0.5134,152.1145,93.6336,-250.1374
0.2693,-0.1631,0.5049,153.3512,92.3511,-250.1374
0.241,-0.1433,0.5015,154.5573,91.8702,-250.1374
0.2126,-0.1272,0.4995,156.1985,91.5191,-250.1374
0.1902,-0.1187,0.4902,157.9847,91.4275,-250.1374
0.1599,-0.1089,0.4917,160.2672,92.2443,-250.1374
0.1396,-0.0945,0.4731,162.458,93.6718,-250.1374
0.1257,-0.0869,0.467,165.1527,95.3969,-250.1374
0.1069,-0.0825,0.4524,168.3969,97.8626,-250.1374
0.0811,-0.0718,0.4343,171.145,100.4504,-250.1374
0.0579,-0.0583,0.4185,174.4351,102.9542,-250.1374
0.0425,-0.0471,0.4072,177.3282,105.9542,-247.1756
0.0164,-0.0374,0.3838,180.2748,109.542,-241.3282
-0.0032,-0.0273,0.3748,183.0534,113.0916,-235.3282
-0.0186,-0.012,0.3655,185.1527,116.7252,-229.4962
-0.0295,-0.002,0.3557,187.5954,119.626,-224.0
-0.0457,0.0127,0.353,189.9618,123.0382,-216.9008
-0.0637,0.0234,0.3379,191.9008,126.0382,-210.7023
-0.0747,0.0266,0.3171,194.1679,128.5878,-204.1908
-0.0908,0.0256,0.3142,196.145,131.5267,-197.6794
-0.1064,0.031,0.2942,198.2519,134.1679,-191.0458
-0.1111,0.0303,0.2764,200.3817,137.0229,-184.5649
-0.1174,0.0264,0.2676,202.4427,139.9008,-177.9389
-0.1343,0.031,0.2688,204.7786,142.6488,-171.2824
-0.1489,0.0337,0.2751,206.9237,145.0229,-164.8931
-0.1523,0.0427,0.2664,209.2214,147.1832,-158.4275
-0.1731,0.0557,0.2659,211.6031,149.1679,-152.2519
-0.1707,0.0569,0.2715,214.374,151.2824,-146.0305
-0.1912,0.074,0.2656,216.9389,153.6183,-139.6488
-0.2048,0.0767,0.2493,219.6718,156.1603,-133.6641
-0.218,0.0808,0.2336,222.7405,158.8321,-127.4275
-0.2227,0.0806,0.2258,225.9389,161.5802,-120.5115
-0.2302,0.0798,0.2051,229.6488,164.4198,-112.8321
-0.2271,0.074,0.1763,233.1603,166.6718,-105.7023
-0.2405,0.0598,0.1594,236.3435,168.4962,-98.4962
-0.2368,0.0488,0.136,239.5649,169.2977,-93.1985
-0.2405,0.0505,0.1289,242.6031,169.4427,-85.1679
-0.2427,0.0588,0.1101,245.7557,168.9542,-77.626
-0.2312,0.0488,0.094,248.6641,167.458,-71.0916
-0.2292,0.0581,0.0815,250.1298,164.3588,-65.1145
-0.2156,0.0537,0.0535,250.1298,161.0534,-59.3511
-0.2122,0.0591,0.0186,250.1298,157.626,-54.2901
-0.1853,0.0662,-0.0061,250.1298,153.4046,-49.6947
-0.1777,0.0688,-0.0437,250.1298,148.3588,-46.0687
-0.1565,0.0671,-0.0789,250.1298,144.0305,-42.2137
-0.1531,0.0564,-0.0981,250.1298,139.5725,-39.5115
-0.1375,0.0679,-0.1323,250.1298,134.5038,-37.5115
-0.1218,0.0776,-0.1655,250.1298,130.1908,-35.4656
-0.1089,0.0847,-0.1919,250.1298,125.8855,-34.0382
-0.0903,0.0955,-0.2148,250.1298,121.6183,-33.1527
-0.0837,0.1035,-0.2485,250.1298,118.1069,-32.0305
-0.0828,0.1125,-0.2686,250.1298,115.2595,-31.1374
-0.0754,0.1208,-0.304,250.1298,112.9466,-30.2977
-0.0706,0.1221,-0.3135,250.1298,110.7939,-29.3588
-0.0745,0.1296,-0.3252,250.1298,108.4962,-28.0916
-0.0718,0.1421,-0.3345,250.1298,106.8015,-26.7176
-0.0762,0.1458,-0.3589,250.1298,105.8779,-25.0458
-0.085,0.1621,-0.3623,250.1298,105.0153,-23.0763
-0.0884,0.1792,-0.3833,250.1298,104.9618,-20.8626
-0.0991,0.1838,-0.3945,250.1298,105.5649,-18.2061
-0.1091,0.1978,-0.4062,249.5802,107.1069,-15.1756
-0.1123,0.2012,-0.4138,248.4504,109.1679,-11.7786
-0.1267,0.2073,-0.4197,247.4351,111.7405,-7.855
-0.1348,0.2051,-0.4402,246.4733,115.1756,-3.5573
-0.1541,0.21,-0.4468,245.855,119.1145,1.7405
-0.1648,0.218,-0.457,245.5114,123.3893,6.7634
-0.1904,0.2278,-0.4658,245.7481,127.8931,12.1374
-0.2075,0.2373,-0.4602,245.916,132.4504,18.2061
-0.2285,0.2444,-0.4543,246.2595,136.8244,24.6794
-0.2446,0.2532,-0.4626,246.7176,140.2672,30.5573
-0.27,0.2605,-0.4624,246.9542,143.9847,37.7634
-0.2869,0.2588,-0.4573,247.3282,146.1985,44.5878
-0.3044,0.259,-0.4597,247.5878,147.9771,51.6489
-0.3162,0.2634,-0.4805,247.8244,149.2977,59.145
-0.3369,0.2693,-0.5,247.7481,149.6336,66.5802
-0.3462,0.2661,-0.511,247.6412,149.8397,73.9008
-0.3513,0.2649,-0.5383,247.374,149.1374,81.5343
-0.3545,0.271,-0.554,246.9542,148.5191,90.145
-0.3562,0.2668,-0.5593,246.3053,147.6488,97.2977
-0.3555,0.2666,-0.5735,245.5878,146.1832,105.145
-0.3462,0.2646,-0.5896,244.9618,143.8015,112.9084
-0.3403,0.2585,-0.5942,244.0458,141.4046,120.4504
-0.3201,0.2476,-0.6096,243.084,137.9924,127.5573
-0.2998,0.2363,-0.6135,242.2137,133.5573,134.9466
-0.2715,0.2249,-0.6318,241.3969,129.0,141.771
-0.2393,0.2151,-0.6497,240.4657,124.0916,148.229
-0.2119,0.2,-0.6655,239.4198,117.9771,155.2748
-0.176,0.1941,-0.6672,238.7634,111.855,162.3282
-0.1189,0.1855,-0.6758,238.1908,105.916,167.2748
-0.0737,0.1748,-0.6934,237.8244,101.4427,171.8855
-0.0376,0.1514,-0.7141,237.5802,97.145,175.3817
0.0066,0.1357,-0.7395,237.4809,93.8244,178.145
0.0522,0.1301,-0.7434,237.5725,91.5649,180.5878
0.0828,0.1245,-0.7646,237.6565,90.5267,182.1069
0.1121,0.127,-0.7715,237.6107,90.0992,182.6794
0.1167,0.1277,-0.7734,237.8015,90.4122,183.2672
0.1267,0.1313,-0.7837,238.3206,90.9237,183.6488
0.1467,0.1362,-0.7939,238.5114,91.626,183.855
0.1443,0.1511,-0.7939,239.4504,92.1756,183.9924
0.1372,0.1484,-0.8066,240.1298,91.9084,184.084
0.1177,0.1521,-0.803,240.7099,90.855,184.5496
0.1174,0.156,-0.8208,241.5649,88.8244,185.5802
0.1011,0.1472,-0.8354,242.3053,85.5878,187.374
0.0996,0.1504,-0.8291,243.2443,81.2061,189.4809
0.0906,0.1404,-0.8425,243.4504,75.8321,192.2519
0.1133,0.1306,-0.8606,243.4962,69.8015,195.3817
0.1294,0.1077,-0.8972,243.2672,63.5191,198.9542
0.1504,0.1123,-0.926,242.916,57.2595,202.8397
0.1826,0.1091,-0.9619,241.8931,50.9771,206.229
0.2136,0.106,-0.9927,240.4198,44.7405,209.313
0.2542,0.1238,-1.0403,238.7557,39.916,211.7634
0.2683,0.1318,-1.0569,236.8626,35.3588,213.6031
0.2959,0.1453,-1.0867,234.687,31.5802,215.1069
0.3369,0.165,-1.124,231.4198,28.5267,215.7634
0.3723,0.1877,-1.1665,228.6488,26.2748,215.7023
0.4011,0.1953,-1.1995,225.3053,25.0076,215.3588
0.4294,0.2114,-1.2471,221.1145,24.8397,214.7176
0.4573,0.2214,-1.2798,216.7634,26.0763,213.9771
0.4714,0.2307,-1.3174,211.9847,28.3664,213.2214
0.4697,0.2349,-1.3374,206.7252,31.3511,212.5496
0.4746,0.2419,-1.3403,200.5191,35.9313,211.9695
0.4739,0.2703,-1.3699,193.9695,40.5802,211.9237
0.4668,0.2961,-1.3633,186.9542,45.0,212.0763
0.4622,0.3267,-1.3799,179.9542,49.9924,212.4962
0.4478,0.3403,-1.3765,172.4504,55.6031,214.1603
0.4272,0.3713,-1.3638,165.3969,61.7099,216.1145
0.416,0.3862,-1.3577,158.0229,68.7634,218.5343
0.3972,0.4041,-1.3306,150.687,75.5954,221.4427
0.3892,0.4077,-1.3162,143.7405,82.687,225.2366
0.3628,0.4102,-1.291,136.8244,90.8015,229.5573
0.3481,0.408,-1.2725,130.3359,99.1985,234.4427
0.3286,0.3894,-1.2383,124.5802,107.8779,239.9618
0.3127,0.3718,-1.2087,117.9389,117.4427,246.2214
0.2976,0.3538,-1.1709,115.855,127.2672,250.1298
0.2747,0.3291,-1.1355,111.0916,137.5649,250.1298
0.2568,0.3066,-1.092,107.5649,148.3512,250.1298
0.2478,0.2942,-1.0701,104.7481,158.7481,250.1298
0.2241,0.2761,-1.0176,102.5649,168.7328,250.1298
0.2019,0.2485,-0.9629,100.7176,177.9771,250.1298
0.1814,0.2183,-0.8945,99.1298,185.229,250.1298
0.1743,0.1858,-0.823,97.2214,192.2366,250.1298
0.1694,0.1533,-0.769,96.0458,195.5496,250.1298
0.1721,0.1035,-0.7109,95.6412,195.7863,250.1298
0.1792,0.0437,-0.6694,95.6489,192.7786,250.1298
0.209,-0.0056,-0.5942,96.313,185.7252,250.1298
0.259,-0.0508,-0.5356,97.0916,175.2901,250.1298
0.3115,-0.0828,-0.4858,98.3206,162.6794,250.1298
0.3838,-0.1079,-0.4553,100.0153,148.8244,250.1298
0.4548,-0.1257,-0.4185,102.0611,133.5038,250.1298
0.499,-0.1453,-0.4026,104.5496,117.3435,250.1298
0.5754,-0.1677,-0.3975,107.6489,96.8779,250.1298
0.6729,-0.1982,-0.4058,111.0611,76.0076,250.1298
0.7693,-0.2256,-0.4153,114.2214,55.2901,250.1298
0.8557,-0.2463,-0.4456,116.7634,34.6412,250.1298
0.9551,-0.2383,-0.4888,121.1298,15.2519,250.1298
1.0398,-0.2285,-0.5461,122.145,-2.5725,250.1298
1.1223,-0.1985,-0.6187,125.5343,-19.2824,250.1298
1.199,-0.1677,-0.6838,128.3588,-33.6107,250.1298
1.2329,-0.1494,-0.7207,129.8168,-45.5115,250.1298
1.2844,-0.1047,-0.803,130.8015,-55.1679,250.1298
1.3257,-0.061,-0.9036,130.7481,-62.1298,250.1298
1.3572,-0.0095,-0.9968,129.2977,-67.0763,250.1298
1.3796,0.0383,-1.085,126.7176,-69.626,241.687
1.3821,0.0962,-1.1753,121.5573,-70.3206,231.3282
1.3809,0.1431,-1.2512,116.3893,-68.9389,222.0534
1.3708,0.2004,-1.3054,111.1603,-65.6183,214.687
1.3599,0.2283,-1.3484,102.626,-60.1527,208.9542
1.3462,0.2793,-1.4158,93.7099,-52.374,205.0763
1.3311,0.3279,-1.4758,84.1832,-42.7557,202.6336
1.3071,0.3657,-1.5244,73.9237,-30.9542,202.0
1.2893,0.3914,-1.5693,63.4427,-17.5649,202.7023
1.2629,0.4119,-1.6062,53.1145,-2.5878,204.3893
1.2407,0.4355,-1.6182,42.7405,13.7786,207.3664
1.2168,0.4419,-1.6318,32.0534,30.7557,211.4122
1.2046,0.4465,-1.6228,21.9466,47.7252,216.1603
1.189,0.4485,-1.6045,12.1298,65.0458,221.6183
1.1748,0.4419,-1.5881,2.6183,81.916,227.1985
1.1636,0.4365,-1.5454,-7.3511,98.9313,233.3893
1.156,0.4219,-1.4878,-16.0687,113.7023,238.8855
1.1453,0.4128,-1.4417,-24.4427,127.5954,243.7405
1.1387,0.3909,-1.3762,-32.3664,139.916,248.2443
1.1399,0.3701,-1.3271,-39.8244,152.1145,250.1298
1.1472,0.3525,-1.2935,-46.5267,162.458,250.1298
1.1414,0.3257,-1.24,-53.7786,173.1298,250.1298
1.1372,0.2861,-1.1819,-59.9695,182.2977,250.1298
1.1313,0.2622,-1.1267,-65.5267,190.0534,250.1298
1.135,0.2329,-1.0811,-70.8244,195.8168,250.1298
1.1257,0.2063,-1.0242,-75.4885,199.7557,250.1298
1.1204,0.1814,-0.9734,-79.6107,201.7099,250.1298
1.1243,0.1768,-0.9404,-82.9618,201.9389,250.1298
1.1208,0.1694,-0.8928,-86.5496,201.4886,250.1298
1.1262,0.1609,-0.8701,-89.7939,199.5954,250.1298
1.1221,0.1492,-0.8325,-93.0763,196.4427,250.1298
1.1331,0.1392,-0.8042,-96.3435,192.0992,246.5954
1.1396,0.1333,-0.7781,-100.6565,184.7939,241.1908
1.1484,0.1323,-0.7366,-104.4962,176.7176,235.7939
1.1514,0.1165,-0.7083,-108.2519,168.7328,230.9237
1.1716,0.1094,-0.7029,-112.1985,160.6488,225.1908
1.1873,0.1052,-0.6938,-116.2595,152.855,218.7634
1.1926,0.103,-0.6892,-120.2443,145.8473,212.7252
1.2012,0.0991,-0.6873,-124.5878,139.6031,206.084
1.2012,0.106,-0.6833,-128.7939,134.2977,199.7863
1.1885,0.106,-0.6797,-133.0153,129.4962,193.8244
1.1875,0.115,-0.6699,-136.7557,125.0305,188.3512
1.1765,0.1091,-0.6707,-140.8092,120.9008,183.4046
1.1545,0.1118,-0.6338,-144.855,116.9771,179.6031
1.135,0.1021,-0.6123,-148.6031,112.9695,176.4886
1.1211,0.0867,-0.6062,-152.5802,108.9084,174.0458
1.1116,0.073,-0.5681,-156.5038,104.9924,172.5267
1.1094,0.0496,-0.5256,-160.6412,100.1756,171.8855
1.1001,0.033,-0.5024,-163.855,96.0992,171.6336
1.1038,0.0273,-0.4939,-166.8244,93.229,171.6488
1.1074,0.02,-0.4465,-169.5802,89.916,172.0382
1.1292,0.0068,-0.4158,-171.7634,87.3206,172.6107
1.1563,-0.0115,-0.3916,-173.5114,85.5343,173.1069
1.1689,-0.0234,-0.3557,-174.7786,84.1756,173.9542
1.1953,-0.0427,-0.3313,-175.2061,84.0229,174.229
1.2219,-0.0559,-0.3035,-175.0687,85.1908,174.771
1.2502,-0.0747,-0.281,-174.3282,87.5954,175.5191
1.2622,-0.0771,-0.2615,-173.1756,90.7176,175.7405
1.293,-0.0913,-0.2373,-171.542,94.0916,175.7099
1.3113,-0.1013,-0.2175,-169.2366,97.7557,175.7634
1.3342,-0.1064,-0.1914,-166.8702,101.7328,175.4809
1.3579,-0.114,-0.1675,-164.4046,105.2366,175.1374
1.374,-0.1172,-0.1423,-162.0305,108.3359,174.3512
1.395,-0.127,-0.116,-159.626,111.0382,173.4886
1.4063,-0.1287,-0.0923,-157.3664,113.0763,172.313
1.4324,-0.134,-0.0752,-154.9008,114.9924,170.1985
1.4456,-0.1323,-0.0654,-152.7328,116.3511,167.9924
1.4436,-0.1433,-0.0549,-150.2595,118.1603,165.3817
1.4556,-0.1389,-0.0652,-148.3512,120.5573,162.0076
1.448,-0.1306,-0.0525,-146.6031,122.3969,158.6412
1.4487,-0.116,-0.0442,-144.542,124.4122,155.1603
1.4368,-0.103,-0.0344,-142.8321,126.5878,151.6794
1.4187,-0.0869,-0.0217,-141.542,127.916,148.0916
1.3994,-0.0818,-0.0273,-140.1679,128.7405,144.6488
1.3806,-0.0813,-0.0278,-139.0687,128.9542,141.7481
1.364,-0.0811,-0.0339,-138.1603,128.6488,139.2137
1.3435,-0.0818,-0.0305,-137.6488,127.8397,136.9466
1.3311,-0.0835,-0.0398,-137.5725,126.2748,134.8168
1.3188,-0.084,-0.0422,-137.3969,123.7863,133.2443
1.3071,-0.0869,-0.0452,-138.0153,121.0534,131.9771
1.2996,-0.0815,-0.0532,-138.5191,117.8321,129.9542
1.2986,-0.0715,-0.0583,-139.3969,114.4504,128.1603
1.2876,-0.0725,-0.0732,-140.2443,110.916,125.8931
1.2932,-0.0688,-0.0671,-141.1679,107.5802,123.4733
1.2878,-0.0647,-0.0862,-142.2061,103.8244,120.916
1.2859,-0.0557,-0.0857,-143.1069,99.6412,118.313
1.2878,-0.0505,-0.0947,-144.3969,94.3053,115.4198
1.2813,-0.0586,-0.1047,-145.8092,88.3817,112.8015
1.2852,-0.061,-0.0955,-147.5191,82.374,110.6031
1.2966,-0.0679,-0.0994,-149.084,75.7405,108.4657
1.3032,-0.0818,-0.0835,-151.1679,68.855,105.8855
1.3176,-0.0923,-0.0664,-154.0305,61.084,103.6107
1.3257,-0.1155,-0.0425,-156.4962,53.1145,101.1756
1.3367,-0.1267,-0.0295,-159.1679,44.7939,98.2519
1.3574,-0.1274,-0.0183,-161.2214,36.5267,95.145
1.3618,-0.1357,-0.0027,-163.2366,29.0382,92.3206
1.3672,-0.1436,0.0039,-164.8473,22.1298,89.0916
1.3813,-0.1577,0.0261,-166.0076,15.7481,85.8321
1.3909,-0.1646,0.04,-166.9771,9.4504,82.8397
1.3982,-0.1719,0.073,-167.4046,3.2519,80.1603
1.4087,-0.1863,0.0999,-167.4733,-3.5878,76.9389
1.4189,-0.2021,0.1362,-167.2824,-9.8931,74.4427
1.4373,-0.218,0.1709,-167.084,-16.084,72.374
1.4509,-0.2253,0.1873,-166.4046,-21.6718,70.4962
1.478,-0.2422,0.198,-165.2901,-26.9695,68.542
1.5095,-0.2517,0.2122,-163.855,-29.916,66.6107
1.5327,-0.2568,0.2175,-162.2824,-31.7634,65.0763
1.5667,-0.2688,0.2231,-160.5802,-32.458,63.4962
1.5986,-0.2756,0.2441,-158.4046,-31.6183,61.8779
1.6265,-0.2878,0.2581,-156.1374,-29.7176,60.1145
1.6523,-0.3057,0.2676,-153.2519,-26.7252,58.3969
1.6604,-0.3125,0.2729,-150.2824,-22.8855,56.5878
1.6848,-0.3232,0.2793,-146.5343,-18.2519,54.6947
1.7004,-0.3403,0.2983,-142.542,-13.4351,52.7252
1.7112,-0.3416,0.314,-138.3282,-8.3817,50.7939
1.7183,-0.344,0.3315,-133.8168,-3.5802,48.6565
1.7231,-0.3533,0.3481,-129.0534,1.5878,46.4962
1.7371,-0.356,0.3474,-124.2137,6.7099,44.4962
1.7351,-0.3625,0.3711,-119.374,11.1908,42.7328
1.7395,-0.3733,0.3735,-114.2443,15.3969,40.5573
1.7407,-0.3772,0.386,-109.4427,19.7863,38.458
1.7395,-0.3872,0.377,-104.1908,23.8473,36.0916
1.7393,-0.3918,0.3694,-98.2672,28.3664,33.626
1.7268,-0.3984,0.3638,-93.3588,32.2901,30.9389
1.7136,-0.395,0.3696,-88.0992,36.0458,28.6947
1.696,-0.3967,0.356,-83.458,39.1985,25.7634
1.6777,-0.394,0.3484,-78.9618,41.6489,23.1832
1.6536,-0.3853,0.3411,-74.7023,43.3206,20.7023
1.6387,-0.3774,0.3333,-71.0687,44.6794,18.2824
1.6167,-0.3726,0.324,-67.4504,45.2595,15.9542
1.584,-0.3657,0.3162,-64.2824,45.5954,13.9847
1.5564,-0.3518,0.2996,-61.5267,45.3053,12.0076
1.5271,-0.3501,0.2864,-58.8931,44.5725,10.0763
1.5046,-0.3315,0.2764,-56.7023,43.0992,8.6489
1.4692,-0.3201,0.2532,-54.4809,41.6336,7.2595
1.4568,-0.3152,0.2439,-52.4351,39.6183,5.9237
1.438,-0.3145,0.2251,-50.9695,37.0992,5.1221
1.4272,-0.3047,0.2107,-49.5573,34.229,4.542
1.4187,-0.2966,0.1917,-48.4733,31.458,4.0076
1.4033,-0.2837,0.1782,-47.7557,28.2061,3.5802
1.405,-0.2698,0.1763,-47.3359,25.084,3.1069
1.4065,-0.2576,0.1492,-46.8702,21.9618,2.7176
1.3999,-0.2537,0.1328,-47.0,19.2137,2.0153
1.3921,-0.24,0.1272,-46.916,16.4046,1.2366
1.3948,-0.2349,0.1184,-47.0763,13.6947,-0.0229
1.4014,-0.2322,0.1118,-47.5191,11.2061,-1.0382
1.407,-0.2307,0.1143,-47.8931,8.7099,-2.2672
1.4043,-0.2173,0.116,-48.4122,6.2977,-3.9466
1.4089,-0.2139,0.1111,-48.8397,3.916,-5.9084
1.4148,-0.218,0.115,-49.6031,1.0611,-7.6718
1.4172,-0.2146,0.113,-50.0305,-1.2748,-9.374
1.4197,-0.2156,0.1204,-50.6718,-3.6336,-11.6565
1.4214,-0.2063,0.1365,-50.9389,-5.7252,-13.687
1.4153,-0.2012,0.1406,-51.5038,-7.6718,-15.5954
1.4202,-0.209,0.1426,-51.4962,-9.2443,-17.8244
1.4202,-0.2073,0.1326,-51.5649,-10.6489,-19.7099
1.4167,-0.2085,0.1355,-51.3893,-11.6336,-21.7099
1.4138,-0.2117,0.1313,-51.1908,-12.5802,-23.6031
1.4136,-0.2187,0.1431,-50.855,-12.8397,-25.8321
1.4033,-0.2144,0.1418,-50.0992,-13.0458,-27.2977
1.3989,-0.2209,0.1433,-49.2061,-12.7634,-28.916
1.3896,-0.2173,0.1543,-48.3817,-12.7176,-30.6947
1.3691,-0.2241,0.1494,-47.3282,-12.5725,-32.1298
1.3601,-0.2168,0.1516,-46.2214,-12.374,-33.0916
1.3491,-0.2219,0.1511,-45.2366,-12.3206,-34.4046
1.333,-0.2212,0.1506,-43.9618,-12.0534,-35.5115
1.3167,-0.2209,0.1531,-42.6107,-11.8931,-36.1908
1.2974,-0.2158,0.156,-41.4733,-11.6947,-37.3282
1.2793,-0.2249,0.1445,-39.9237,-10.9695,-37.9847
1.2502,-0.2251,0.1411,-38.6031,-10.0382,-38.3053
1.2361,-0.2219,0.1384,-37.2061,-9.0992,-38.4046
1.2083,-0.2197,0.1338,-35.6107,-7.7939,-38.5573
1.1858,-0.2207,0.1257,-33.9924,-6.6183,-38.0534
1.1641,-0.2158,0.1255,-32.3359,-5.3359,-36.9618
1.1541,-0.2129,0.1191,-30.9466,-4.1145,-35.2977
1.1414,-0.2063,0.1223,-29.5649,-3.0382,-33.8626
1.1292,-0.2026,0.1123,-27.9466,-1.9847,-31.542
1.1157,-0.1975,0.1179,-26.7786,-1.0992,-29.7328
1.1079,-0.2002,0.1296,-25.3053,-0.5344,-27.4962
1.1045,-0.1956,0.1282,-23.9237,0.313,-25.3053
1.1064,-0.1877,0.1189,-22.2061,0.771,-23.8702
1.1121,-0.1897,0.1184,-20.6336,1.3359,-22.0687
1.1165,-0.1943,0.1172,-18.687,2.0305,-20.8321
1.1169,-0.1843,0.104,-16.8397,3.1679,-20.1221
1.125,-0.1877,0.0979,-15.4122,4.3359,-19.3969
1.1355,-0.1868,0.0923,-13.5649,5.8321,-19.0076
1.1348,-0.1829,0.0813,-11.6565,7.3053,-18.9924
1.1323,-0.1816,0.0718,-9.8244,9.2748,-19.1603
1.1309,-0.1799,0.0579,-8.626,11.0,-19.5954
1.123,-0.1807,0.062,-7.0458,12.3053,-19.7099
1.1226,-0.1738,0.0513,-5.8015,13.2748,-20.2366
1.1108,-0.1699,0.0505,-4.4656,14.1603,-20.3588
1.0913,-0.1653,0.0454,-3.5191,14.1756,-20.542
1.0818,-0.1526,0.0415,-2.6718,14.0382,-20.2901
1.0789,-0.1409,0.0334,-1.9008,14.0458,-20.084
1.063,-0.1379,0.03,-1.1298,13.4885,-19.4275
1.0549,-0.1353,0.021,-0.9466,13.3282,-19.3053
1.0403,-0.1279,0.0076,-0.458,13.2748,-19.0687
1.0276,-0.1265,-0.0007,-0.3588,12.6565,-18.5344
1.0173,-0.1279,-0.0093,-0.1145,11.8702,-18.2824
1.0129,-0.1177,-0.0112,0.0916,10.6336,-18.0687
1.0078,-0.114,-0.0159,0.1985,8.9542,-17.5649
1.0083,-0.1169,-0.021,-0.0305,7.542,-17.2366
0.998,-0.1079,-0.0269,-0.4809,5.4122,-17.0382
0.9976,-0.1011,-0.0354,-0.5496,3.6107,-16.6031
0.9939,-0.1003,-0.0461,-1.2061,1.7252,-16.6183
0.9951,-0.0935,-0.0461,-1.9389,-0.1679,-16.5267
0.9954,-0.0916,-0.0591,-2.5649,-2.0305,-16.7176
0.9951,-0.0898,-0.0596,-3.3817,-3.7481,-17.1374
0.9951,-0.0815,-0.0576,-4.3359,-5.7405,-17.4656
0.9937,-0.0815,-0.061,-5.1603,-7.5191,-17.8397
0.9988,-0.0776,-0.0652,-6.3282,-9.3664,-18.1985
0.9966,-0.075,-0.0625,-7.1908,-11.1374,-18.6107
0.9927,-0.075,-0.0708,-8.2901,-12.5802,-19.0763
0.9941,-0.0776,-0.0669,-8.8321,-14.2977,-19.4198
0.9937,-0.0686,-0.0557,-9.687,-15.1221,-19.6107
1.0015,-0.0642,-0.0593,-10.1756,-15.9313,-19.7557
0.9968,-0.075,-0.0498,-10.5725,-16.6489,-19.7557
0.9983,-0.0681,-0.0576,-10.3664,-16.9618,-19.7252
0.9919,-0.0728,-0.061,-10.6336,-17.0382,-19.374
1.0027,-0.0815,-0.0452,-10.6412,-17.1679,-18.9924
1.0012,-0.0818,-0.0352,-10.2519,-16.9466,-18.8702
1.0049,-0.0862,-0.0496,-9.916,-16.8321,-18.1756
1.0049,-0.0889,-0.0347,-9.6183,-16.4733,-17.9084
1.0115,-0.0911,-0.0234,-8.8626,-16.1985,-17.1985
1.0134,-0.0945,-0.0286,-8.4656,-15.4427,-16.9084
1.0156,-0.0969,-0.0227,-8.0992,-14.5573,-16.2366
1.0176,-0.1001,-0.0217,-7.0305,-13.2901,-15.7099
1.031,-0.0969,-0.0247,-6.1298,-11.7023,-15.2595
1.0347,-0.1069,-0.031,-5.1145,-9.9618,-14.6947
1.0352,-0.0972,-0.0293,-4.0763,-8.0611,-14.1603
1.0398,-0.1094,-0.02,-2.5725,-5.626,-13.6489
1.0425,-0.1074,-0.022,-1.4427,-3.1832,-13.1069
1.0452,-0.1055,-0.0178,-0.1832,-1.0916,-12.8015
1.0413,-0.1069,-0.0208,1.2748,1.3893,-12.3511
1.0493,-0.1106,-0.0227,2.3969,3.4809,-11.9466
1.0371,-0.1025,-0.0237,3.542,5.1298,-12.0611
1.0381,-0.1101,-0.0122,4.7481,6.8244,-11.9466
1.0234,-0.1108,-0.0073,5.8779,7.8779,-11.8015
1.0217,-0.1038,-0.0042,7.2061,8.8779,-11.855
1.0078,-0.1089,-0.012,8.2672,9.4885,-11.9847
1.0,-0.105,-0.019,9.5802,9.916,-12.084
0.9841,-0.1089,-0.0212,10.542,10.0916,-12.5802
0.9773,-0.1064,-0.0239,11.6641,10.1298,-12.3282
0.9697,-0.0999,-0.0193,12.6718,9.542,-12.4198
0.9524,-0.0964,-0.0288,13.542,8.8168,-12.1603
0.9414,-0.0881,-0.0281,14.2824,7.7557,-11.7634
0.9397,-0.0762,-0.0432,15.0458,7.1069,-11.1374
0.9326,-0.074,-0.0493,15.2672,6.0382,-10.8321
0.9214,-0.0725,-0.072,15.7099,4.8855,-9.5344
0.9143,-0.0664,-0.0801,15.7023,4.0611,-8.6183
0.9167,-0.0559,-0.1008,15.4885,3.5038,-7.855
0.9163,-0.0559,-0.1091,15.0611,2.6031,-6.8015
0.9097,-0.0544,-0.1045,14.5725,1.8092,-5.6947
0.9189,-0.051,-0.1133,13.8931,0.9466,-4.7328
0.9214,-0.0327,-0.127,13.0916,-0.1221,-3.5496
0.9314,-0.0288,-0.136,12.2595,-1.0305,-2.5496
0.9473,-0.0264,-0.1453,11.2901,-1.855,-1.8779
0.9526,-0.021,-0.1489,10.0534,-2.4046,-1.3511
0.9702,-0.0215,-0.1594,8.9084,-2.8321,-0.7939
0.9736,-0.0151,-0.1519,7.8626,-3.1069,-0.7252
0.9858,-0.0146,-0.1619,6.8015,-2.7863,-0.542
0.9995,-0.0139,-0.1609,6.0763,-2.8473,-0.6641
1.0129,-0.0132,-0.1494,5.2748,-3.229,-1.1908
1.0227,-0.0139,-0.1558,4.1374,-3.6031,-1.8397
1.03,-0.0212,-0.1575,2.7176,-3.7939,-2.2443
1.0437,-0.0125,-0.1492,1.6718,-4.2595,-2.8931
1.0515,-0.0027,-0.1462,0.9771,-4.2137,-3.5344
1.0532,-0.0112,-0.1472,0.0153,-4.0305,-4.1756
1.0654,-0.0112,-0.165,-0.8168,-3.8244,-4.7023
1.0706,-0.0078,-0.1526,-1.771,-3.2672,-5.2977
1.0725,-0.0276,-0.1616,-2.4962,-2.5115,-6.1756
1.0774,-0.033,-0.158,-3.4885,-1.8397,-6.5344
1.082,-0.03,-0.1538,-4.0382,-1.5038,-7.626
1.0789,-0.0325,-0.1431,-4.6641,-1.1145,-8.229
1.0764,-0.0398,-0.1294,-5.2214,-0.5496,-8.6565
1.072,-0.0386,-0.1301,-5.855,-0.0534,-9.2137
1.0715,-0.0447,-0.1155,-6.0687,0.2214,-9.4885
1.0674,-0.0405,-0.1143,-6.3282,0.5878,-10.0076
1.0549,-0.051,-0.0908,-6.3664,0.6489,-10.1679
1.0571,-0.0522,-0.0859,-6.374,0.9389,-10.5725
1.0515,-0.0588,-0.0874,-6.3511,0.8473,-10.313
1.0447,-0.064,-0.072,-6.1374,0.5649,-10.7481
1.0493,-0.0618,-0.0645,-5.9237,0.7939,-10.8092
1.042,-0.0769,-0.0591,-5.7481,0.855,-10.7481
1.0408,-0.0715,-0.0537,-5.1756,0.8397,-10.8244
1.0374,-0.0686,-0.0457,-4.6718,1.0611,-10.771
1.0376,-0.0764,-0.0371,-3.9847,1.1527,-10.7634
1.0325,-0.0791,-0.0508,-3.5038,1.3893,-10.855
1.0244,-0.0737,-0.0386,-2.6947,1.8855,-10.8168
1.0212,-0.0815,-0.031,-1.9847,2.3511,-10.7405
1.0242,-0.0857,-0.0388,-1.3053,2.7939,-10.6489
0.9993,-0.0835,-0.0264,-0.6412,3.0687,-10.5878
0.9949,-0.0857,-0.0291,0.084,3.5649,-10.3282
0.9902,-0.0811,-0.033,0.916,4.0611,-9.8779
0.9802,-0.0813,-0.0381,1.4504,4.4504,-9.8626
0.9648,-0.0835,-0.032,2.4046,4.7939,-9.5191
0.9504,-0.0857,-0.0461,3.0458,5.1908,-8.9542
0.9358,-0.0681,-0.0391,3.687,5.2519,-8.0916
0.9285,-0.0688,-0.0259,4.542,5.0992,-7.1221
0.9148,-0.0664,-0.022,4.855,4.771,-5.9618
0.9124,-0.0608,-0.0251,5.5191,4.0763,-4.7939
0.9097,-0.0562,-0.0315,5.9237,3.2214,-3.1298
0.9026,-0.0591,-0.0264,6.2443,2.4198,-1.6718
0.9016,-0.0532,-0.0193,6.6489,1.458,-0.1527
0.9033,-0.0505,-0.03,7.229,0.4275,1.4427
0.9063,-0.051,-0.0259,7.4656,-0.3435,2.6031
0.9104,-0.0461,-0.0339,8.0229,-1.0916,3.7634
0.9238,-0.0503,-0.0469,8.4351,-1.5496,4.9847
0.9299,-0.0559,-0.042,8.7099,-1.8015,6.0382
0.9421,-0.0439,-0.0476,8.9389,-2.0534,7.0916
0.9514,-0.0422,-0.0442,9.229,-2.1603,7.7023
0.9626,-0.0439,-0.0447,9.5802,-2.4351,8.2137
0.9854,-0.0442,-0.0557,9.7634,-2.6489,8.8168
0.9944,-0.0388,-0.0583,10.1298,-2.7863,9.1985
1.0132,-0.03,-0.0684,10.2137,-2.8244,9.4504
1.0259,-0.0347,-0.075,10.2824,-2.7786,9.6412
1.0481,-0.03,-0.0845,10.084,-2.6336,9.3206
1.062,-0.0334,-0.0937,9.9008,-2.4275,9.0076
1.0828,-0.0452,-0.0991,9.6107,-1.8244,8.3664
1.092,-0.0312,-0.104,9.2366,-1.1832,8.1221
