ax,ay,az,gx,gy,gz
0.5344,0.23,0.0513,19.7481,-41.7023,149.229
0.5393,0.2129,0.0645,21.6412,-40.7099,152.3817
0.5408,0.1953,0.095,24.0992,-40.6107,155.6565
0.5479,0.1729,0.1392,26.6641,-40.9084,158.8702
0.5496,0.1533,0.1672,29.542,-41.6489,161.7481
0.5657,0.1484,0.1978,32.6947,-43.1603,164.5343
0.571,0.1304,0.2397,36.3206,-45.0534,167.8397
0.5969,0.1084,0.2673,40.2443,-47.1374,170.6031
0.6174,0.0906,0.2727,44.3282,-48.5038,173.5878
0.6465,0.0637,0.2915,48.6794,-48.8092,176.4504
0.6619,0.0566,0.3035,53.458,-49.5573,179.313
0.6924,0.0266,0.3137,58.6565,-50.1908,182.2519
0.7273,0.0105,0.3425,64.1145,-50.6031,184.855
0.7622,-0.0042,0.3569,69.5267,-51.313,187.1832
0.7991,-0.022,0.3826,75.1527,-51.9008,188.9237
0.8318,-0.0325,0.397,80.7634,-52.2672,190.5496
0.8762,-0.0476,0.4209,86.5573,-53.0611,191.7939
0.9207,-0.0583,0.4331,92.458,-53.916,192.2748
0.947,-0.0669,0.4417,98.0153,-54.9771,192.6183
1.0042,-0.0918,0.4487,104.7328,-55.8779,192.2824
1.0564,-0.095,0.4595,111.0992,-56.374,191.4657
1.1113,-0.1116,0.4431,117.8397,-56.9237,190.1527
1.1689,-0.1262,0.4338,125.0153,-56.7023,188.4809
1.2466,-0.1335,0.416,133.0153,-56.3588,185.7634
1.2942,-0.1526,0.4133,139.771,-55.4885,183.145
1.3162,-0.1541,0.4111,145.2519,-55.2748,180.3588
1.3547,-0.1523,0.3962,151.5725,-54.6718,176.7786
1.3877,-0.1643,0.3701,157.3206,-53.542,172.4046
1.4124,-0.1809,0.3643,162.5878,-52.6031,167.7176
1.4331,-0.1877,0.3442,166.8702,-51.7481,162.9618
1.4368,-0.2136,0.3403,171.0458,-51.0992,157.8397
1.4419,-0.2168,0.3572,174.9389,-51.2977,152.7939
1.429,-0.2283,0.3633,178.8168,-52.2061,147.6336
1.4211,-0.2268,0.3711,182.2824,-54.0229,142.8397
1.3997,-0.2244,0.3877,185.9542,-56.1527,138.3512
1.3762,-0.24,0.3789,189.542,-58.1374,134.145
1.3762,-0.249,0.3789,192.9313,-60.1756,130.6412
1.3479,-0.2642,0.3879,196.542,-62.9008,127.0916
1.3228,-0.2881,0.3955,200.1069,-65.687,124.3969
1.2998,-0.3079,0.4087,203.9695,-69.1985,122.4046
1.2888,-0.3289,0.425,207.855,-73.145,120.9237
1.2817,-0.3467,0.4277,212.0458,-77.2977,120.2595
1.2783,-0.3687,0.4258,216.5649,-81.0992,119.4657
1.2766,-0.3982,0.4097,221.3817,-84.5343,119.1679
1.2839,-0.4314,0.3833,226.6107,-87.145,119.0534
1.2942,-0.449,0.3701,232.1908,-89.5038,119.0076
1.3137,-0.4885,0.355,237.855,-91.4657,118.9924
1.3384,-0.5066,0.3325,243.4046,-94.2137,118.6031
1.355,-0.5149,0.3184,248.8321,-95.7023,118.374
1.3906,-0.5156,0.2927,250.1298,-95.7863,117.6718
1.4314,-0.5105,0.2749,250.1298,-95.1069,116.9084
1.4771,-0.5024,0.2407,250.1298,-97.6794,116.0
1.5222,-0.4983,0.1965,250.1298,-97.3588,114.4657
1.5483,-0.4895,0.1675,250.1298,-97.6565,113.0763
1.6033,-0.4824,0.1133,250.1298,-95.8626,111.1527
1.6484,-0.4734,0.063,250.1298,-93.8244,108.6641
1.7102,-0.4653,0.0215,250.1298,-92.5878,105.7252
1.7671,-0.4639,-0.0398,250.1298,-92.1603,102.6641
1.8262,-0.459,-0.0869,250.1298,-88.7634,98.2748
1.8833,-0.4578,-0.1252,250.1298,-86.7863,94.1145
1.9265,-0.4556,-0.1714,250.1298,-84.916,89.4733
1.9695,-0.4539,-0.1919,250.1298,-82.687,84.1298
1.9999,-0.4319,-0.228,250.1298,-81.2824,78.6412
1.9999,-0.427,-0.2629,250.1298,-80.084,72.1298
1.9999,-0.4111,-0.2737,250.1298,-81.0687,65.7786
1.9999,-0.4023,-0.2747,250.1298,-84.3435,58.9237
1.9999,-0.4102,-0.3567,250.1298,-85.0916,51.6183
1.9999,-0.4172,-0.439,250.1298,-82.5191,43.8244
1.9999,-0.4209,-0.5085,250.1298,-78.5573,35.374
1.9999,-0.4167,-0.5513,250.1298,-74.5649,26.7099
1.9999,-0.4141,-0.5713,250.1298,-70.313,17.5954
1.9999,-0.3994,-0.6445,250.1298,-63.6947,5.229
1.9999,-0.3997,-0.6978,250.1298,-57.7557,-5.6794
1.9999,-0.4016,-0.7195,250.1298,-52.3511,-15.9771
1.9999,-0.4092,-0.7241,250.1298,-47.8092,-25.7252
1.9999,-0.4216,-0.7451,250.1298,-43.7252,-37.2519
1.9999,-0.4216,-0.7485,250.1298,-41.1374,-47.7023
1.9999,-0.4209,-0.7395,250.1298,-39.5496,-57.9618
1.9999,-0.4175,-0.7305,250.1298,-38.9389,-68.084
1.9999,-0.4004,-0.731,250.1298,-39.4427,-77.9084
1.9999,-0.3865,-0.6992,250.1298,-40.8779,-87.2977
1.9999,-0.3745,-0.6992,248.1603,-42.7786,-96.7176
1.9999,-0.366,-0.6926,244.0916,-45.2519,-105.8702
1.9999,-0.363,-0.6836,240.145,-48.0305,-115.0458
1.9999,-0.3667,-0.6609,236.4733,-51.916,-124.8931
1.9999,-0.3716,-0.646,233.2977,-55.7557,-134.313
1.9999,-0.387,-0.6396,230.2519,-60.2672,-143.5954
1.9999,-0.4104,-0.6208,227.5343,-64.8015,-153.3817
1.9999,-0.429,-0.6177,225.1603,-69.6718,-163.2901
1.9999,-0.4521,-0.6006,223.0229,-74.6183,-173.2824
1.9999,-0.4756,-0.603,220.7481,-79.6336,-183.4427
1.9999,-0.488,-0.5974,219.1298,-84.1069,-192.9618
1.9999,-0.5066,-0.583,217.0611,-89.084,-203.5954
1.9999,-0.5291,-0.5696,215.4275,-94.6183,-213.3969
1.9999,-0.5388,-0.543,213.9313,-98.0916,-222.8092
1.9999,-0.5398,-0.5237,212.9084,-102.8244,-231.8244
1.9749,-0.5396,-0.5149,211.5802,-108.0,-240.9237
1.9509,-0.5352,-0.5015,210.7099,-112.5573,-249.7328
1.925,-0.5437,-0.5068,209.9771,-116.7252,-250.1374
1.9148,-0.5432,-0.5029,209.3664,-120.5496,-250.1374
1.8884,-0.5535,-0.5156,208.7863,-123.8321,-250.1374
1.8569,-0.5654,-0.5283,208.2443,-126.7481,-250.1374
1.825,-0.5671,-0.5322,207.6412,-128.8626,-250.1374
1.7939,-0.5503,-0.5386,207.0611,-131.4351,-250.1374
1.7595,-0.5515,-0.5471,206.2366,-133.687,-250.1374
1.7185,-0.5554,-0.5522,205.1527,-136.084,-250.1374
1.6882,-0.562,-0.5613,204.0534,-138.4733,-250.1374
1.6514,-0.5718,-0.5632,202.5343,-140.3969,-250.1374
1.6375,-0.5786,-0.5742,200.7405,-142.2519,-250.1374
1.6099,-0.584,-0.5789,199.1221,-143.8931,-250.1374
1.593,-0.594,-0.6023,197.5343,-145.0687,-250.1374
1.5635,-0.5952,-0.6123,195.8168,-145.8702,-250.1374
1.5476,-0.604,-0.6248,193.8473,-146.0992,-250.1374
1.541,-0.595,-0.6426,192.1603,-145.7557,-250.1374
1.5288,-0.5952,-0.666,190.5343,-144.7863,-250.1374
1.519,-0.5845,-0.689,188.8397,-143.0611,-250.1374
1.5161,-0.5803,-0.7034,187.458,-140.2977,-250.1374
1.5195,-0.5552,-0.7363,185.7176,-136.1756,-250.1374
1.5063,-0.5403,-0.7673,184.2672,-131.0687,-250.1374
1.5081,-0.5217,-0.8069,182.6488,-125.1374,-250.1374
1.4907,-0.5056,-0.8464,180.8702,-118.7023,-250.1374
1.4851,-0.4841,-0.8818,178.8855,-111.0458,-250.1374
1.4822,-0.4653,-0.9146,176.687,-103.6107,-250.1374
1.4521,-0.4507,-0.9653,174.3817,-96.4427,-250.1374
1.4487,-0.4348,-0.989,171.6947,-88.4122,-250.1374
1.4175,-0.4302,-1.0493,168.3512,-77.7252,-250.1374
1.4055,-0.4248,-1.0811,165.0763,-68.5496,-250.1374
1.3704,-0.4077,-1.1133,161.4427,-59.0382,-250.1374
1.3525,-0.3901,-1.1301,157.7023,-49.6107,-250.1374
1.3147,-0.3538,-1.1677,153.8473,-39.458,-250.1374
1.2661,-0.3132,-1.2095,150.1679,-29.9466,-250.1374
1.2166,-0.2832,-1.2446,146.7786,-20.6641,-250.1374
1.1716,-0.2373,-1.2908,143.5954,-11.626,-250.1374
1.1096,-0.1919,-1.3125,140.6947,-3.0916,-250.1374
1.0557,-0.1448,-1.3447,137.916,5.313,-250.1374
0.9885,-0.1069,-1.3767,135.2137,12.6183,-250.1374
0.9324,-0.0769,-1.3982,132.7099,19.1756,-250.1374
0.8972,-0.0691,-1.4128,129.7557,24.5038,-250.1374
0.8357,-0.0532,-1.4468,126.2824,29.145,-250.1374
0.7729,-0.0483,-1.4951,122.9695,33.8321,-250.1374
0.7122,-0.0447,-1.5203,118.2366,37.6107,-250.1374
0.6653,-0.0232,-1.5339,114.4885,40.7405,-250.1374
0.6074,-0.0237,-1.5183,108.916,42.1069,-250.1374
0.5723,-0.0107,-1.5139,103.0916,41.1374,-250.1374
0.5337,-0.0132,-1.5129,96.5038,37.0382,-250.1374
0.5161,0.0046,-1.4651,88.6794,30.6565,-250.1374
0.4734,0.0613,-1.4365,80.0534,23.2595,-250.1374
0.4187,0.1179,-1.4094,70.8321,14.145,-250.1374
0.3875,0.1716,-1.3833,61.6641,5.0763,-250.1374
0.3462,0.2087,-1.3945,52.2137,-3.8321,-250.1374
0.3203,0.2327,-1.3823,42.916,-13.6489,-250.1374
0.3071,0.2275,-1.3992,33.7328,-24.7634,-250.1374
0.2886,0.2371,-1.4216,24.2214,-35.7252,-250.1374
0.2666,0.2419,-1.407,14.9084,-45.8779,-250.1374
0.2476,0.26,-1.4263,5.8015,-54.9389,-250.1374
0.2229,0.2881,-1.4353,-4.4122,-63.2443,-250.1374
0.2104,0.3201,-1.4548,-13.4656,-70.145,-250.1374
0.1838,0.3589,-1.4402,-22.1527,-76.4657,-250.1374
0.1689,0.4006,-1.4412,-30.8092,-82.5191,-250.1374
0.1538,0.4236,-1.425,-39.1145,-89.4809,-250.1374
0.1353,0.4348,-1.4102,-46.9313,-95.5191,-250.1374
0.1152,0.4297,-1.3865,-54.4656,-103.3588,-247.6336
0.1062,0.4065,-1.3716,-62.5115,-111.7328,-240.6107
0.0852,0.387,-1.3508,-70.084,-119.458,-233.687
0.0698,0.3645,-1.3193,-77.0534,-127.6947,-226.3893
0.0674,0.3545,-1.293,-83.8168,-135.6336,-219.1756
0.071,0.3386,-1.2727,-90.2901,-143.7481,-211.771
0.0791,0.3386,-1.2542,-96.3511,-151.8702,-204.458
0.1033,0.3342,-1.2136,-102.3893,-160.0916,-197.1679
0.1255,0.3318,-1.175,-107.6031,-168.7557,-189.7939
0.1438,0.3345,-1.1584,-112.8702,-177.6412,-182.5573
0.176,0.3301,-1.1226,-117.7557,-186.7023,-175.8626
0.2178,0.335,-1.0862,-122.0611,-195.8473,-169.1679
0.2527,0.3555,-1.0708,-125.8168,-205.1145,-163.0763
0.2996,0.3662,-1.0571,-129.2137,-214.0153,-157.6794
0.3408,0.3752,-1.0579,-132.4657,-223.313,-152.5954
0.3875,0.3828,-1.0571,-135.5114,-233.5878,-148.0611
0.4312,0.3953,-1.0544,-138.1756,-243.8321,-144.5191
0.4563,0.3904,-1.0596,-140.6718,-250.1374,-141.9618
0.5122,0.4031,-1.0767,-143.6107,-250.1374,-139.5343
0.5811,0.4106,-1.1021,-146.8092,-250.1374,-138.0534
0.6252,0.4182,-1.1426,-149.9084,-250.1374,-138.0763
0.645,0.4172,-1.155,-153.4733,-250.1374,-139.2519
0.6902,0.3804,-1.2002,-157.6183,-250.1374,-141.313
0.7192,0.3247,-1.2539,-162.9542,-250.1374,-144.6183
0.7615,0.2732,-1.3098,-169.145,-250.1374,-148.626
0.8003,0.2183,-1.3389,-176.3282,-250.1374,-153.6107
0.8342,0.1689,-1.3801,-184.9389,-250.1374,-159.2672
0.8704,0.1506,-1.3962,-193.7786,-250.1374,-165.1832
0.9138,0.1309,-1.3848,-203.9618,-250.1374,-171.5343
0.9351,0.1218,-1.3657,-213.5191,-250.1374,-177.3282
0.9824,0.1353,-1.3455,-224.0687,-250.1374,-183.0992
1.0122,0.1672,-1.3191,-233.8244,-250.1374,-188.2443
1.0349,0.188,-1.291,-242.771,-250.1374,-193.3359
1.0542,0.2073,-1.2708,-250.1374,-250.1374,-198.4046
1.0615,0.2073,-1.2502,-250.1374,-250.1374,-202.9008
1.0591,0.1882,-1.2214,-250.1374,-250.1374,-206.6336
1.0535,0.1667,-1.1624,-250.1374,-250.1374,-210.1069
1.041,0.157,-1.1169,-250.1374,-250.1374,-212.9084
1.0242,0.1533,-1.0764,-250.1374,-250.1374,-215.1985
0.9951,0.1404,-1.0046,-250.1374,-250.1374,-216.8626
0.9648,0.1223,-0.9575,-250.1374,-250.1374,-217.7405
0.9277,0.0933,-0.9343,-250.1374,-250.1374,-218.7328
0.8953,0.0618,-0.9302,-250.1374,-250.1374,-219.7939
0.8599,0.0356,-0.9126,-250.1374,-250.1374,-220.8702
0.8184,0.0127,-0.9119,-250.1374,-250.1374,-221.5954
0.7812,0.0029,-0.9202,-250.1374,-250.1374,-223.1221
0.7588,0.0068,-0.9146,-250.1374,-249.2137,-223.9542
0.7219,0.0195,-0.8977,-250.1374,-245.1756,-224.3817
0.6821,0.0469,-0.886,-250.1374,-242.6412,-224.8244
0.647,0.0911,-0.873,-250.1374,-241.2519,-224.3206
0.6094,0.1226,-0.8804,-250.1374,-240.5496,-223.6718
0.563,0.1438,-0.8867,-247.5573,-240.5114,-222.8092
0.5137,0.1736,-0.895,-244.2595,-240.9237,-221.7786
0.4619,0.1902,-0.8975,-241.8626,-241.3512,-220.6794
0.4114,0.209,-0.9131,-240.2748,-242.4122,-219.7405
0.3855,0.2197,-0.9309,-239.5496,-243.6107,-218.7786
0.3289,0.2373,-0.9326,-239.6183,-244.9924,-217.7634
0.2759,0.2708,-0.9224,-239.7863,-246.771,-216.2824
0.219,0.3108,-0.9153,-240.6641,-248.4962,-214.4351
0.158,0.3472,-0.9058,-242.0,-250.1374,-212.5343
0.1057,0.3843,-0.8767,-243.7176,-250.1374,-209.6565
0.052,0.4075,-0.8567,-245.7481,-250.1374,-206.771
0.0103,0.425,-0.8262,-248.1603,-250.1374,-203.5191
-0.0261,0.4321,-0.7927,-250.1374,-250.1374,-199.7252
-0.0432,0.4363,-0.7944,-250.1374,-250.1374,-196.4046
-0.0769,0.4338,-0.7761,-250.1374,-250.1374,-192.4962
-0.1035,0.4133,-0.7605,-250.1374,-250.1374,-188.4733
-0.1321,0.4053,-0.717,-250.1374,-250.1374,-184.0534
-0.1418,0.4009,-0.6775,-250.1374,-250.1374,-179.374
-0.1475,0.4202,-0.6384,-250.1374,-250.1374,-174.3053
-0.1428,0.4399,-0.6111,-250.1374,-250.1374,-168.855
-0.1279,0.4387,-0.5833,-250.1374,-250.1374,-163.4275
-0.1162,0.4224,-0.5823,-250.1374,-250.1374,-158.2366
-0.1038,0.3601,-0.5732,-250.1374,-250.1374,-151.8702
-0.1023,0.2937,-0.5881,-250.1374,-250.1374,-147.5496
-0.0945,0.2053,-0.5791,-250.1374,-250.1374,-143.1603
-0.0872,0.1414,-0.584,-250.1374,-250.1374,-139.7176
-0.0862,0.0378,-0.6006,-249.0611,-250.1374,-136.9084
-0.0835,-0.0576,-0.6084,-247.3893,-250.1374,-134.3206
-0.0869,-0.1238,-0.6191,-245.9389,-250.1374,-132.4046
-0.0872,-0.1592,-0.6284,-244.2443,-250.1374,-130.7863
-0.0786,-0.1436,-0.6108,-242.3893,-246.7328,-128.9771
-0.0879,-0.0618,-0.5723,-239.7023,-237.0153,-126.6336
-0.093,0.0657,-0.5229,-236.6031,-227.626,-123.9008
-0.0947,0.1357,-0.5161,-232.4886,-218.2824,-121.0076
-0.095,0.2537,-0.478,-227.3206,-207.4809,-116.5954
-0.1025,0.343,-0.4287,-222.0458,-197.2519,-111.855
-0.106,0.3757,-0.3918,-217.0382,-187.9466,-106.5115
-0.1262,0.3867,-0.3779,-212.1603,-179.7481,-100.6489
-0.1521,0.3784,-0.3767,-207.7863,-172.0153,-93.4122
-0.1711,0.3728,-0.385,-203.7939,-164.4351,-87.8855
-0.1841,0.3721,-0.3987,-200.2595,-158.1908,-80.7481
-0.199,0.3696,-0.4028,-197.374,-152.8855,-73.7405
-0.2266,0.3757,-0.4109,-194.5191,-147.3893,-66.2824
-0.2505,0.3857,-0.4043,-192.3282,-142.5878,-58.8244
-0.2698,0.3945,-0.3896,-190.4351,-138.5191,-51.4656
-0.2861,0.4192,-0.3828,-189.2366,-134.6641,-44.2137
-0.2993,0.4434,-0.3606,-188.3512,-131.8321,-37.4351
-0.3123,0.4675,-0.3289,-187.3817,-130.0534,-30.8855
-0.3201,0.4875,-0.3149,-186.5343,-129.3893,-24.2443
-0.3235,0.5037,-0.3032,-185.8092,-129.8244,-18.4122
-0.3242,0.509,-0.3047,-184.8015,-130.9237,-12.626
-0.321,0.5181,-0.2944,-184.2595,-132.229,-7.1374
-0.3069,0.5281,-0.2791,-183.2901,-134.0305,-2.9084
-0.3013,0.541,-0.2627,-182.7328,-135.6641,1.0076
-0.2888,0.5535,-0.2622,-181.8702,-136.4733,4.3664
-0.2783,0.5725,-0.2441,-181.2977,-137.4657,6.855
-0.2756,0.5911,-0.2466,-180.7863,-138.6488,9.0076
-0.2817,0.6021,-0.2334,-180.3969,-139.9237,11.4351
-0.2769,0.6191,-0.2336,-179.8779,-141.7557,12.7481
-0.2659,0.6296,-0.2153,-179.6107,-144.0458,13.9924
-0.2756,0.6482,-0.2021,-179.7176,-146.8702,14.9237
-0.2769,0.6494,-0.178,-179.5267,-150.0076,15.8397
-0.2756,0.6501,-0.1602,-179.6031,-153.1527,16.2901
-0.2783,0.6338,-0.1526,-180.0153,-156.6336,16.3588
-0.2727,0.6104,-0.1389,-180.229,-160.0076,16.6947
-0.2642,0.5862,-0.1621,-180.5802,-163.0916,16.4351
-0.2629,0.5859,-0.1816,-180.6565,-165.6641,16.4504
-0.2583,0.5991,-0.1902,-180.4351,-167.9771,16.6947
-0.2449,0.6157,-0.1897,-180.2366,-171.4733,17.2748
-0.2334,0.6045,-0.1965,-179.9618,-175.0763,18.4275
-0.2175,0.5935,-0.2329,-179.8473,-178.7023,19.8779
-0.2053,0.584,-0.2688,-179.855,-181.2595,21.9313
-0.1863,0.5681,-0.2849,-179.9924,-183.1221,23.8015
-0.1763,0.5549,-0.3096,-180.687,-184.374,25.8855
-0.1699,0.5513,-0.3391,-181.855,-184.6336,28.0534
-0.1707,0.5396,-0.3508,-183.1298,-183.6488,29.626
-0.1682,0.5283,-0.364,-184.5267,-182.0229,31.7176
-0.1587,0.5066,-0.3638,-186.8168,-179.1527,34.2595
-0.1714,0.5005,-0.3687,-188.8473,-176.4351,35.9237
-0.1802,0.4897,-0.3655,-190.9542,-173.3512,38.3588
-0.1909,0.4529,-0.3567,-193.313,-169.542,40.7328
-0.2158,0.4021,-0.3486,-195.8015,-165.6336,42.5191
-0.2307,0.3486,-0.3408,-198.7099,-161.4809,44.9084
-0.2476,0.2983,-0.3193,-201.2977,-157.2061,47.7939
-0.269,0.2954,-0.2917,-203.8168,-152.7863,51.0458
-0.2893,0.3359,-0.24,-205.8244,-148.771,54.9695
-0.312,0.3865,-0.188,-206.5343,-144.6183,60.145
-0.3225,0.4111,-0.1628,-206.9924,-140.4122,65.3969
-0.3472,0.4395,-0.1331,-206.5725,-135.8473,71.2595
-0.3682,0.45,-0.1016,-205.8397,-130.9389,77.7939
-0.3938,0.4473,-0.0422,-204.4275,-126.4122,84.3206
-0.4109,0.418,0.0022,-203.1603,-121.7939,90.9847
-0.4297,0.3916,0.0425,-201.9771,-117.9542,98.1069
-0.448,0.3677,0.0688,-200.2061,-114.5878,105.2137
-0.4592,0.354,0.0896,-198.0992,-111.9695,112.084
-0.4668,0.3496,0.106,-195.8855,-109.9389,119.8626
-0.4861,0.3513,0.1377,-193.3664,-108.4351,127.626
-0.4985,0.3496,0.1758,-190.2595,-107.7405,136.2366
-0.5061,0.3582,0.2075,-187.3664,-108.3511,144.2443
-0.5046,0.3584,0.2302,-183.9771,-109.2366,152.5114
-0.5002,0.364,0.2524,-180.2824,-110.7405,160.7405
-0.5112,0.3572,0.2683,-176.4122,-113.0229,169.0076
-0.5007,0.3472,0.3022,-172.3893,-115.8702,177.1374
-0.4963,0.3452,0.3022,-168.6794,-118.9924,184.1603
-0.4827,0.3352,0.3186,-164.0763,-122.8321,192.0916
-0.4607,0.3374,0.314,-159.5878,-126.6794,199.4198
-0.4421,0.3306,0.3281,-154.8931,-130.4427,206.0763
-0.4124,0.335,0.3318,-150.313,-134.2137,212.3588
-0.3823,0.3357,0.3181,-145.2595,-137.8015,218.229
-0.3508,0.3367,0.3169,-140.6031,-140.3206,223.771
-0.3196,0.3459,0.303,-135.9466,-142.4198,228.4122
-0.2844,0.353,0.2908,-131.3359,-143.3435,232.4962
-0.262,0.3591,0.2781,-126.8702,-143.4504,236.2061
-0.2329,0.365,0.2703,-122.4427,-143.1832,239.0687
-0.2212,0.3787,0.2542,-118.0229,-142.3512,241.542
-0.2065,0.3911,0.2576,-114.2214,-141.3435,243.6565
-0.2017,0.3987,0.2651,-110.313,-140.4122,245.0382
-0.2021,0.4138,0.2678,-106.5878,-139.7939,246.0534
-0.199,0.4253,0.2759,-103.1985,-139.5038,247.2519
-0.2063,0.4314,0.282,-100.374,-139.3893,248.2977
-0.2141,0.4275,0.2864,-97.9542,-138.8168,248.9618
-0.2187,0.4297,0.2805,-95.8855,-138.374,249.9084
-0.2344,0.4248,0.2844,-94.4198,-137.8015,250.1298
-0.2534,0.4106,0.2832,-92.9924,-137.0382,250.1298
-0.2664,0.4153,0.2908,-91.8626,-136.0382,250.1298
-0.2913,0.4336,0.2966,-91.0763,-134.855,250.1298
-0.312,0.4314,0.3013,-90.2901,-133.229,250.1298
-0.321,0.3975,0.3208,-90.0382,-132.4733,250.1298
-0.3291,0.374,0.321,-90.0153,-132.1221,250.1298
-0.3423,0.3242,0.3271,-90.2672,-131.4198,250.1298
-0.3499,0.2646,0.3391,-90.5725,-130.8626,250.1298
-0.3516,0.1797,0.3618,-90.7176,-130.0763,250.1298
-0.353,0.1584,0.3628,-90.6107,-128.7634,250.1298
-0.3447,0.1118,0.376,-89.9084,-126.5649,250.1298
-0.3347,0.0559,0.4055,-88.9313,-123.9084,250.1298
-0.3169,-0.0061,0.417,-87.3435,-120.1985,250.1298
-0.271,-0.072,0.446,-85.3206,-116.1527,250.1298
-0.2324,-0.1179,0.4702,-82.916,-111.6412,250.1298
-0.1794,-0.1292,0.4973,-79.687,-106.626,250.1298
-0.1252,-0.1431,0.5242,-75.8473,-100.4046,250.1298
-0.0632,-0.1543,0.5613,-71.7176,-93.3206,250.1298
-0.0352,-0.1704,0.5894,-67.2519,-86.3817,250.1298
0.0344,-0.1873,0.6074,-62.374,-77.9237,250.1298
0.0906,-0.2041,0.6194,-56.9466,-68.7099,250.1298
0.1587,-0.21,0.6404,-51.1069,-59.5878,250.1298
0.2021,-0.209,0.6826,-44.6718,-51.1221,250.1298
0.2642,-0.2104,0.7261,-37.1832,-43.2366,250.1298
0.3167,-0.2122,0.7632,-29.7023,-37.3282,250.1298
0.3696,-0.2036,0.8159,-21.6489,-33.4885,250.1298
0.3977,-0.2009,0.8513,-13.8015,-31.1374,250.1298
0.4517,-0.1809,0.8984,-4.5115,-29.7557,250.1298
0.5105,-0.1675,0.9495,4.229,-28.6031,250.1298
0.5674,-0.1479,0.9846,13.313,-27.9847,250.1298
0.6235,-0.137,1.0295,22.458,-27.4504,250.1298
0.677,-0.1292,1.0466,31.5496,-26.4733,250.1298
0.7283,-0.1272,1.0725,40.6565,-25.9924,250.1298
0.7722,-0.1296,1.0957,49.7634,-25.9695,250.1298
0.7964,-0.1321,1.1025,58.4046,-25.7786,250.1298
0.8286,-0.1357,1.1316,68.1756,-25.8931,250.1298
0.865,-0.1372,1.1445,77.313,-26.9237,250.1298
0.8965,-0.1416,1.1301,86.1985,-28.2901,250.1298
0.9255,-0.1677,1.1108,94.6947,-30.0,250.1298
0.9524,-0.1841,1.0596,102.7252,-31.9695,250.1298
0.9834,-0.2056,1.0049,110.8931,-33.8855,250.1298
1.0178,-0.2285,0.9534,117.9924,-35.855,250.1298
1.0518,-0.2322,0.8882,124.8931,-36.9237,250.1298
1.0664,-0.2361,0.8621,131.8931,-37.626,250.1298
1.1162,-0.248,0.7949,138.3893,-37.6489,250.1298
1.165,-0.2664,0.7363,144.7939,-36.2443,250.1298
1.2183,-0.2725,0.6638,150.4046,-33.3053,250.1298
1.2771,-0.3037,0.6104,155.916,-29.374,250.1298
1.355,-0.3379,0.5364,160.8244,-24.8244,250.1298
1.4402,-0.3652,0.4756,165.6718,-19.7634,250.1298
1.5366,-0.3962,0.4006,170.4809,-14.4656,250.1298
1.5889,-0.4028,0.3481,174.5954,-8.3511,250.1298
1.6995,-0.4148,0.2427,179.2443,1.084,250.1298
1.8098,-0.4209,0.1365,183.313,11.7939,250.1298
1.9194,-0.4226,0.0654,186.0763,23.1985,250.1298
1.9999,-0.3977,0.0232,188.2519,35.0992,250.1298
1.9999,-0.4109,0.0134,189.313,47.145,250.1298
1.9999,-0.3877,0.0115,189.0763,58.9924,250.1298
1.9999,-0.356,0.0305,187.7863,69.7786,250.1298
1.9999,-0.3257,0.0854,185.1985,77.9695,250.1298
1.9999,-0.3052,0.074,182.1679,82.9084,250.1298
1.9999,-0.2842,0.1282,178.4809,86.9237,250.1298
1.9999,-0.2581,0.1802,174.1908,91.2137,250.1298
1.9999,-0.2158,0.2373,168.5496,94.9389,250.1298
1.9999,-0.1655,0.2756,163.6183,97.0382,250.1298
1.9999,-0.1174,0.3564,158.9771,97.542,250.1298
1.9999,-0.0671,0.4199,153.9847,95.3817,250.1298
1.9999,-0.0229,0.4888,149.6107,91.7939,250.1298
1.9999,0.0181,0.572,145.6336,86.9924,241.9313
1.9999,0.0513,0.6436,141.8931,79.8779,224.3206
1.9999,0.0779,0.7097,138.9542,69.8855,207.229
1.9999,0.1062,0.7622,136.6183,58.3817,191.5267
1.9999,0.1072,0.7798,135.0382,45.7481,177.4809
1.9999,0.1252,0.8418,133.8092,32.9008,164.6488
1.8982,0.1665,0.8694,133.0992,19.3588,153.5802
1.7952,0.1995,0.8975,133.145,4.7328,143.3206
1.6997,0.1831,0.9055,133.5954,-7.1679,135.6947
1.6187,0.1628,0.9111,134.1832,-16.5725,129.8015
1.5171,0.1292,0.936,135.5878,-25.1756,126.458
1.4539,0.0942,0.9282,137.7023,-32.4198,125.1832
1.4263,0.0767,0.9133,140.5038,-36.4733,125.9237
1.355,0.0483,0.926,144.5267,-39.771,128.4427
1.2922,0.0286,0.937,149.6794,-41.8015,132.1527
1.2507,0.011,0.9282,155.4962,-41.9542,137.0611
1.1921,0.0078,0.9331,162.4427,-41.3435,142.5725
1.1506,0.0076,0.917,169.7481,-40.1374,149.1756
1.136,-0.011,0.9011,178.1069,-38.2137,156.3817
1.1113,-0.0342,0.856,186.2901,-36.4198,163.374
1.1077,-0.0488,0.8193,194.1221,-35.2214,169.9466
1.1123,-0.0884,0.7666,202.8244,-34.2137,177.6947
1.1279,-0.1282,0.6948,210.4122,-32.6107,184.7405
1.1692,-0.165,0.5999,218.0076,-30.542,191.6336
1.2241,-0.1897,0.4897,224.8626,-27.5802,198.1145
1.2983,-0.2075,0.3745,231.1679,-22.8397,204.3282
1.3779,-0.2085,0.2529,236.3817,-16.0229,209.8321
1.4705,-0.1931,0.1362,240.7405,-6.9466,214.7634
1.5547,-0.1748,0.0352,244.0534,4.0534,218.4122
1.606,-0.1597,-0.0161,246.1603,16.0687,221.0992
1.6877,-0.1267,-0.1116,247.2519,28.8321,222.8473
1.7615,-0.0955,-0.1777,246.8779,41.4885,222.916
1.8247,-0.0537,-0.2219,245.2977,53.687,221.5802
1.8792,-0.0088,-0.2468,242.3206,64.3282,218.9466
1.9226,0.0247,-0.2551,237.9695,72.9237,214.313
1.9526,0.0522,-0.2493,232.687,79.0763,208.4046
1.9775,0.063,-0.2407,225.7557,83.6718,200.9466
1.9797,0.0718,-0.2336,218.9466,85.9542,193.3359
1.9917,0.0959,-0.2161,210.3512,86.0229,183.2824
1.9998,0.1143,-0.2068,202.2977,84.3053,173.6794
1.9999,0.1406,-0.1953,194.0382,82.0076,163.2672
1.9885,0.1458,-0.1846,185.8244,78.9695,152.0611
1.9712,0.1606,-0.1558,177.8321,74.2901,140.9771
1.9417,0.1846,-0.1221,170.1527,68.4275,130.1679
1.9063,0.1987,-0.075,163.2672,61.4809,119.2748
1.8857,0.209,-0.0496,157.5267,53.8702,109.8015
1.8403,0.2212,-0.002,152.1908,44.1985,99.6641
1.7866,0.2156,0.0554,147.7557,34.3664,91.3511
1.6938,0.1953,0.1199,143.8092,22.4046,81.5725
1.6582,0.1855,0.1414,141.3359,12.4351,74.5267
1.594,0.1663,0.1711,139.5725,2.8092,68.0992
1.5293,0.1487,0.1948,138.6947,-6.9847,62.3893
1.4504,0.1411,0.2271,138.855,-16.0305,57.8397
1.3884,0.147,0.2578,139.1298,-25.2061,53.6336
1.3203,0.1487,0.2905,140.1756,-33.6718,50.8702
1.24,0.1423,0.3027,141.458,-41.5802,49.1069
1.1812,0.1521,0.3325,143.0763,-49.1756,48.0
1.1187,0.1497,0.3491,145.0458,-56.0382,47.7863
1.0859,0.1558,0.3577,146.9924,-62.2977,48.5725
1.0215,0.1436,0.3787,149.0763,-67.5115,50.2824
0.9802,0.1365,0.3843,151.3053,-71.6489,52.7405
0.939,0.1206,0.4043,153.5038,-74.8473,55.855
0.9058,0.1003,0.4119,156.4275,-76.7405,59.771
0.8643,0.0781,0.4209,159.3512,-77.6794,63.9542
0.8391,0.0623,0.4473,162.5954,-78.4733,68.7863
0.8201,0.0417,0.4517,166.5573,-78.7176,74.2672
0.8164,0.0364,0.4485,171.2748,-78.3588,79.8702
0.801,0.0181,0.4414,176.6488,-77.313,86.0153
0.8201,-0.0117,0.4316,182.2672,-75.8931,92.5115
0.8328,-0.043,0.4011,188.5954,-73.3511,99.4885
0.8584,-0.0852,0.3652,195.0534,-69.4962,106.4122
0.8862,-0.1353,0.3152,201.771,-64.8321,113.0687
0.9355,-0.1741,0.2729,208.7939,-59.6489,119.6565
0.9929,-0.2175,0.2119,215.8015,-54.229,126.0076
1.0308,-0.2307,0.1655,222.9618,-48.3664,132.0534
1.1084,-0.262,0.094,230.1908,-42.7634,137.7939
1.2019,-0.2783,0.0171,237.3817,-36.3511,143.3817
1.2964,-0.2861,-0.0894,243.4657,-29.4122,147.2824
1.3948,-0.2742,-0.2104,248.8473,-20.3664,150.5725
1.4939,-0.2532,-0.3057,250.1298,-9.5496,152.3817
1.5715,-0.2371,-0.4094,250.1298,1.3588,152.8321
1.6572,-0.209,-0.4988,250.1298,12.3053,152.1832
1.6875,-0.2021,-0.5408,250.1298,21.7863,150.0763
1.7573,-0.1689,-0.6155,250.1298,31.687,146.3435
1.8154,-0.1328,-0.6577,250.1298,40.9771,141.1069
1.8523,-0.0881,-0.6948,250.1298,47.3817,134.9924
1.8743,-0.04,-0.7141,244.5954,51.5954,127.2519
1.8884,-0.0071,-0.7361,237.626,53.7405,118.7405
1.905,0.0217,-0.7429,229.771,54.2595,109.7786
1.8972,0.0405,-0.7585,220.8397,53.1908,99.374
1.8904,0.0557,-0.7461,211.4504,50.1069,88.7557
1.8936,0.0422,-0.7539,202.229,45.8855,78.9313
1.895,0.0447,-0.7664,191.8244,40.2595,67.4962
1.8813,0.0667,-0.7761,181.7328,34.8244,56.4198
1.8794,0.0886,-0.7839,171.7863,29.2595,46.229
1.8677,0.1284,-0.7842,161.9618,23.9771,36.2977
1.8601,0.1702,-0.7681,152.2519,18.4275,26.6718
1.8435,0.1987,-0.7556,142.8092,12.8244,17.7023
1.8225,0.2122,-0.7576,133.9847,7.7176,9.6489
1.8015,0.2092,-0.7585,125.2519,2.9695,1.4275
1.7937,0.2036,-0.7756,117.9771,-1.0229,-5.9695
1.7622,0.1853,-0.7666,109.9695,-4.4046,-12.9313
1.7346,0.155,-0.7659,102.8626,-7.1221,-19.8779
1.6902,0.1406,-0.7568,96.5649,-9.313,-26.2595
1.6492,0.1296,-0.7388,90.6489,-11.313,-31.9618
1.6091,0.116,-0.7258,85.1069,-13.0305,-36.7099
1.5745,0.1252,-0.7024,79.4122,-14.4885,-42.4275
1.5344,0.1069,-0.6697,74.855,-15.8168,-46.1145
1.4907,0.113,-0.6555,70.7481,-17.2519,-49.0687
1.4583,0.1116,-0.6304,66.916,-18.1221,-51.7634
1.4246,0.1094,-0.5986,63.3969,-18.9771,-54.0458
1.3909,0.1108,-0.5769,60.3435,-19.9008,-55.8397
1.3794,0.1157,-0.5574,57.3664,-20.6794,-57.2824
1.3557,0.1201,-0.5305,54.9313,-21.5954,-58.2366
1.325,0.1162,-0.5078,52.771,-22.3893,-59.2214
1.2964,0.1145,-0.4771,51.145,-23.1832,-59.916
1.2798,0.1101,-0.4451,49.9847,-23.9695,-61.084
1.2454,0.0952,-0.4263,48.9313,-24.7099,-61.8168
1.2139,0.093,-0.4058,48.0992,-25.2748,-62.8397
1.1794,0.0862,-0.3865,47.7252,-26.4427,-63.9924
1.1672,0.072,-0.3835,47.6718,-27.5267,-64.7557
1.1316,0.0674,-0.3752,47.6336,-29.0458,-65.542
1.1008,0.0674,-0.3552,48.0076,-30.3969,-66.0687
1.0718,0.0764,-0.3655,48.4504,-31.0534,-65.9389
1.0413,0.0771,-0.3545,49.1298,-31.9008,-65.458
1.0176,0.0928,-0.3506,49.5038,-32.4275,-64.2672
0.9993,0.1113,-0.3662,50.1832,-32.3282,-63.0
0.9817,0.1174,-0.3735,50.6565,-31.9695,-60.7939
0.9719,0.127,-0.3735,51.2366,-30.8702,-58.4351
0.9609,0.1287,-0.375,51.229,-29.0076,-55.9008
0.9414,0.1257,-0.387,50.9008,-26.5267,-52.4504
0.9316,0.1284,-0.4094,51.0,-23.8931,-49.4198
0.9158,0.115,-0.4148,50.7176,-21.0076,-46.1679
0.8975,0.1023,-0.4143,50.3817,-18.1374,-43.0382
0.8826,0.0928,-0.4233,50.0534,-15.7786,-40.1603
0.8738,0.0933,-0.4436,49.7786,-13.1832,-37.2137
0.8535,0.1023,-0.4353,49.3359,-11.145,-34.542
0.8555,0.1008,-0.4382,49.1069,-9.7557,-31.6031
0.8574,0.114,-0.4556,48.6718,-8.6183,-28.9389
0.8516,0.1301,-0.4619,47.8473,-7.7252,-25.916
0.855,0.1511,-0.4709,47.1374,-7.2214,-23.4427
0.8606,0.1658,-0.4771,46.0687,-6.6336,-20.7786
0.8672,0.1763,-0.4802,44.3435,-6.2137,-17.8015
0.8757,0.1877,-0.4895,42.6794,-6.0382,-15.2519
0.8928,0.1938,-0.5095,40.8931,-6.0,-12.9466
0.9011,0.196,-0.5149,38.7099,-5.9695,-10.6947
0.9141,0.2004,-0.5183,36.1985,-6.0229,-8.8397
0.938,0.2017,-0.53,33.2824,-5.9466,-7.5802
0.947,0.2046,-0.5334,30.1527,-6.4122,-6.313
0.9656,0.2087,-0.5325,27.0763,-7.1374,-5.6031
0.9788,0.2114,-0.5286,23.458,-7.6947,-5.1069
0.9919,0.2185,-0.5386,20.1221,-8.6794,-5.4198
1.0095,0.2144,-0.5291,16.8168,-9.8931,-5.7939
1.0222,0.2166,-0.5188,13.3817,-11.0763,-6.6794
1.0371,0.2231,-0.5178,10.3511,-12.374,-7.8397
1.0493,0.2212,-0.4971,7.1908,-13.3588,-9.1679
1.0684,0.2183,-0.4998,4.1527,-14.2977,-10.9695
1.0774,0.21,-0.4888,0.5649,-15.4275,-13.4809
1.0862,0.2043,-0.4807,-2.374,-16.2672,-15.7786
1.0837,0.1934,-0.4719,-5.1298,-16.8168,-17.6183
1.0864,0.1868,-0.4575,-7.2824,-17.4962,-19.9847
1.0781,0.1765,-0.4346,-9.3817,-18.1221,-22.1069
1.0679,0.1768,-0.4104,-11.2366,-18.8626,-23.6412
1.0593,0.1702,-0.3909,-12.542,-20.1221,-25.5344
1.0571,0.1653,-0.3855,-13.9389,-21.0458,-27.1756
1.04,0.1643,-0.3496,-14.8931,-21.687,-27.7786
1.0339,0.1543,-0.3372,-15.542,-22.5267,-28.542
1.0273,0.1553,-0.3274,-16.2137,-22.6489,-29.2443
1.0154,0.1421,-0.3228,-16.5114,-22.4962,-29.3817
1.0044,0.1411,-0.3086,-17.0763,-21.8321,-29.6947
0.9932,0.1306,-0.2869,-17.542,-21.4275,-29.9237
0.9895,0.1199,-0.2615,-17.5649,-20.8931,-29.6641
0.9792,0.1208,-0.252,-17.8092,-20.1679,-29.5725
0.9678,0.104,-0.2432,-17.7863,-19.9924,-29.2901
0.9614,0.1086,-0.2163,-17.771,-19.8244,-28.7252
0.9424,0.114,-0.2026,-17.3206,-19.6641,-28.0916
0.9392,0.1121,-0.1868,-16.6489,-19.7405,-27.4962
0.9297,0.1174,-0.1597,-15.7786,-19.2901,-26.9389
0.9231,0.1199,-0.1506,-14.6336,-19.0611,-26.0305
0.9133,0.1221,-0.1467,-13.229,-18.7863,-25.2443
0.9133,0.1343,-0.1455,-11.771,-18.1221,-24.2137
0.8984,0.137,-0.1245,-10.0458,-17.5267,-23.0763
0.9041,0.1345,-0.1306,-8.3588,-16.9695,-21.9466
0.8972,0.1433,-0.1238,-6.229,-16.4275,-20.6718
0.8806,0.1433,-0.1296,-4.3893,-16.2824,-19.3435
0.8782,0.1467,-0.1252,-2.4351,-16.2977,-17.8397
0.8689,0.1436,-0.1355,-0.4656,-16.5038,-16.7939
0.8611,0.1523,-0.1357,1.1603,-17.1374,-15.2214
0.8579,0.1536,-0.1406,2.6031,-17.6641,-14.0992
0.8547,0.1543,-0.1458,4.3053,-18.7786,-12.8779
0.8477,0.1626,-0.1675,5.4656,-19.8397,-11.8626
0.8542,0.1716,-0.1724,6.3588,-21.1679,-10.542
0.8538,0.1787,-0.1877,6.8702,-22.2443,-9.458
0.8601,0.197,-0.2073,7.3588,-23.374,-8.145
0.8733,0.2007,-0.23,7.2137,-24.1221,-7.0992
0.884,0.208,-0.2439,6.7557,-24.2366,-5.7557
0.8936,0.2112,-0.2607,6.0305,-24.1908,-4.6565
0.9094,0.218,-0.2817,5.084,-23.7176,-3.1679
0.925,0.2227,-0.2903,3.8321,-22.8168,-2.1679
0.9343,0.2227,-0.2976,2.4733,-21.5954,-0.9389
0.958,0.2346,-0.314,1.0916,-19.8702,-0.1374
0.9712,0.2317,-0.3208,-0.458,-18.0458,0.542
0.9922,0.2268,-0.3206,-2.0382,-16.0229,0.9924
1.0061,0.2314,-0.3232,-3.5573,-13.8244,1.4046
1.0203,0.2205,-0.3157,-5.0916,-11.5573,1.6031
1.0164,0.2246,-0.3098,-6.8092,-8.9084,1.1527
1.0376,0.2256,-0.3149,-7.9618,-6.5115,0.9924
1.0422,0.2268,-0.2964,-9.2824,-4.1908,0.4198
1.0496,0.2163,-0.2932,-10.5878,-2.1985,-0.3359
1.053,0.2144,-0.2803,-11.5954,-0.3282,-0.8855
1.0527,0.2109,-0.259,-12.458,1.5267,-1.6947
1.0569,0.2068,-0.2432,-13.4656,3.1221,-2.8855
1.0574,0.1938,-0.2351,-14.0611,4.0916,-3.8244
1.0554,0.1877,-0.2109,-14.3206,4.9771,-4.3435
1.0503,0.1802,-0.1995,-14.8321,5.6947,-5.0382
1.0408,0.1729,-0.1855,-15.0992,6.229,-5.8321
1.0381,0.1653,-0.1646,-15.229,6.4504,-6.4046
1.0264,0.1636,-0.1528,-15.3664,6.4351,-7.0076
1.0249,0.1628,-0.1416,-15.3893,6.0076,-7.7023
1.0117,0.1646,-0.1252,-14.916,5.2901,-8.0382
1.0076,0.1746,-0.1179,-14.7939,4.3664,-8.5344
0.9998,0.1838,-0.095,-14.1374,2.8855,-8.8855
0.9941,0.1746,-0.0957,-13.9771,1.687,-9.2519
0.9822,0.175,-0.0815,-13.2214,0.4122,-9.1832
0.978,0.177,-0.0725,-12.5115,-0.8931,-9.1374
0.9783,0.1702,-0.0813,-11.5496,-2.2824,-8.9924
0.9756,0.1672,-0.085,-10.6947,-3.2519,-8.7481
0.9656,0.1675,-0.0769,-9.3588,-4.3817,-8.5725
0.9651,0.1665,-0.0759,-8.4427,-5.2137,-8.0076
0.9617,0.1677,-0.0876,-7.3969,-5.8855,-7.5725
0.9573,0.1663,-0.0889,-6.1679,-6.5954,-6.5802
0.9626,0.1719,-0.0852,-5.1908,-7.3893,-5.6336
0.9614,0.179,-0.0696,-3.916,-7.9084,-4.7252
0.9688,0.1799,-0.0637,-2.7023,-8.4962,-3.6336
0.9631,0.1819,-0.062,-1.8473,-8.9237,-2.7481
0.9646,0.1875,-0.0659,-0.7328,-9.458,-1.6412
0.9722,0.1833,-0.0688,0.1832,-9.6336,-0.9542
0.9717,0.1887,-0.0767,1.4275,-10.0305,-0.0687
0.9775,0.1892,-0.0671,2.6336,-10.3053,0.3588
0.979,0.1836,-0.0669,3.5878,-10.7405,0.7099
0.9854,0.1873,-0.0774,4.5496,-11.1908,1.1756
0.9834,0.187,-0.0742,5.8321,-11.7481,1.3817
1.0007,0.1812,-0.0842,6.7023,-12.2366,1.6031
1.0012,0.1809,-0.0854,7.8779,-12.7176,1.5725
1.0,0.1792,-0.1067,8.6718,-12.8397,1.374
1.0054,0.1768,-0.1145,9.4504,-12.7939,1.5038
1.0125,0.1787,-0.1394,9.9618,-12.1603,1.9237
1.0271,0.1912,-0.1521,10.5191,-11.3053,2.1527
1.0271,0.198,-0.1787,10.6412,-9.8244,2.6031
1.0349,0.1992,-0.1936,10.4656,-7.9695,3.4275
1.0356,0.2117,-0.2141,10.2443,-5.9237,3.8092
1.0457,0.2134,-0.2151,9.6565,-3.771,4.5802
1.0503,0.2173,-0.2183,8.7405,-1.7481,5.2824
1.0625,0.2187,-0.2314,7.8473,0.0458,5.8779
1.0647,0.2158,-0.231,6.5878,1.771,6.374
1.0769,0.2183,-0.2329,5.3664,3.3206,6.7252
1.0757,0.2136,-0.2383,4.0611,4.5649,6.9542
1.0815,0.2097,-0.228,2.7939,5.229,6.6489
1.0842,0.208,-0.2161,1.6718,6.0458,6.4351
1.0872,0.2087,-0.217,0.7328,6.4656,5.8931
1.0867,0.2056,-0.1992,-0.0611,6.6794,5.3817
1.0913,0.2068,-0.1929,-0.8321,6.626,4.4504
1.0911,0.2041,-0.1846,-1.3817,6.4504,3.6718
1.0833,0.1992,-0.1738,-2.1221,6.0,2.4885
1.074,0.1948,-0.156,-2.5115,5.2595,1.542
1.0762,0.1921,-0.1497,-2.8473,4.3359,0.5496
1.0598,0.1902,-0.137,-3.084,3.0076,-0.5191
1.0525,0.1941,-0.1333,-3.0458,1.8244,-0.9237
1.0542,0.1963,-0.1328,-3.0916,0.6641,-1.3664
1.0469,0.2061,-0.1218,-2.7939,-0.4046,-1.6183
1.0408,0.2,-0.1101,-2.7481,-1.3588,-1.4809
1.0369,0.1995,-0.1042,-2.5344,-2.5038,-1.313
1.0378,0.2031,-0.1118,-1.9771,-3.5725,-1.1221
1.0322,0.1936,-0.1055,-1.6031,-4.7099,-1.0611
