ax,ay,az,gx,gy,gz
1.4412,0.051,0.032,7.1603,8.8626,26.9771
1.4822,0.0347,0.0293,7.7557,8.2214,26.3206
1.5095,0.0115,0.0469,8.2977,6.7481,25.4733
1.5447,-0.0095,0.0608,8.9847,4.8321,24.7557
1.571,-0.0093,0.0579,9.6718,2.6412,23.4427
1.6055,-0.031,0.0808,10.4046,-0.4885,22.5878
1.6125,-0.0308,0.0793,11.0153,-3.6183,21.3893
1.646,-0.0378,0.0959,11.6641,-6.9389,20.2137
1.6802,-0.0493,0.092,12.5878,-10.916,18.7176
1.7148,-0.0508,0.0945,13.1679,-15.3206,16.855
1.7593,-0.0627,0.1064,13.6947,-20.0992,14.9008
1.7983,-0.0696,0.0913,13.8626,-25.2519,12.6412
1.8418,-0.0759,0.0774,14.0382,-29.8779,10.5496
1.8833,-0.0842,0.0718,14.1221,-34.458,8.1832
1.9021,-0.0813,0.0547,14.1603,-37.5496,5.6718
1.9551,-0.0876,0.0352,13.9084,-40.7176,3.374
1.9999,-0.0996,0.0562,13.6718,-46.1756,1.4351
1.9999,-0.1055,0.0435,13.3053,-50.9771,-0.6336
1.9999,-0.113,0.0247,12.8855,-54.9237,-2.916
1.9999,-0.1243,0.0171,12.2901,-58.4427,-5.916
1.9999,-0.1289,0.0005,11.3053,-60.7328,-9.2519
1.9999,-0.1399,-0.033,10.3893,-61.626,-13.1221
1.9999,-0.1501,-0.0344,9.6336,-61.6107,-17.145
1.9999,-0.1768,-0.0583,8.4733,-60.855,-23.1832
1.9999,-0.1853,-0.0952,7.8702,-59.9008,-28.4886
1.9999,-0.196,-0.0903,7.1298,-58.3282,-34.3588
1.9999,-0.197,-0.0552,5.8702,-58.0611,-40.9618
1.9999,-0.1912,-0.0315,4.9847,-58.3359,-48.9389
1.9999,-0.2031,-0.0312,4.2519,-59.0229,-56.7481
1.9999,-0.2239,-0.0698,3.542,-59.5573,-65.7634
1.9999,-0.2405,-0.0862,2.8015,-60.1221,-74.9924
1.9999,-0.2595,-0.1057,2.1756,-59.9924,-84.7023
1.9999,-0.2639,-0.0955,1.542,-59.2366,-94.4046
1.9999,-0.269,-0.0869,0.4275,-58.7023,-104.9771
1.9999,-0.2771,-0.0603,-0.3588,-58.7252,-115.3206
1.9999,-0.2795,-0.0627,-1.5115,-58.8626,-125.5802
1.9999,-0.2935,-0.0498,-2.855,-59.8855,-135.9771
1.9999,-0.2979,-0.0464,-4.1221,-61.1298,-145.9313
1.9999,-0.3008,-0.0339,-5.5496,-62.4122,-155.8092
1.9999,-0.3071,-0.0352,-7.0534,-63.6031,-165.7939
1.9999,-0.3154,-0.0273,-8.5038,-64.4809,-175.8015
1.9999,-0.3247,-0.0146,-9.9313,-65.9542,-185.7405
1.9999,-0.3389,0.0015,-11.1374,-67.5573,-194.9542
1.9999,-0.3594,0.0259,-12.4733,-68.8702,-204.5267
1.9999,-0.3577,0.0393,-13.6565,-69.6565,-213.4733
1.9999,-0.3674,0.0508,-14.5496,-70.2672,-222.3359
1.9999,-0.3672,0.0608,-15.2137,-70.7863,-231.2443
1.9999,-0.3757,0.0776,-15.4885,-71.5496,-239.6565
1.9999,-0.3826,0.094,-15.5802,-73.0458,-248.0076
1.9999,-0.3918,0.116,-15.2824,-74.5115,-250.1374
1.9999,-0.4031,0.1201,-14.9847,-76.2519,-250.1374
1.9999,-0.416,0.1255,-14.0153,-77.458,-250.1374
1.9999,-0.4243,0.1548,-12.8244,-78.5878,-250.1374
1.9999,-0.4226,0.147,-11.4885,-79.4427,-250.1374
1.9999,-0.4224,0.1482,-10.0458,-79.3893,-250.1374
1.9999,-0.4233,0.1411,-8.6718,-79.2901,-250.1374
1.9999,-0.4373,0.1211,-7.1145,-78.6412,-250.1374
1.9999,-0.4453,0.1174,-5.8779,-77.5725,-250.1374
1.9999,-0.4412,0.0981,-4.7252,-76.3969,-250.1374
1.9999,-0.4365,0.1038,-3.3511,-75.084,-250.1374
1.9999,-0.4336,0.1155,-2.0153,-73.9771,-250.1374
1.9999,-0.437,0.1074,-0.7252,-72.5343,-250.1374
1.9999,-0.4319,0.1062,0.3817,-71.3893,-250.1374
1.9999,-0.4285,0.0942,1.6107,-69.8626,-250.1374
1.9999,-0.4407,0.0723,2.8244,-68.0076,-250.1374
1.9999,-0.4421,0.052,4.0992,-66.0305,-250.1374
1.9999,-0.4412,0.0303,5.5191,-63.6794,-250.1374
1.9999,-0.4456,0.012,6.8855,-61.2366,-250.1374
1.9983,-0.4451,0.0046,8.2214,-58.4198,-250.1374
1.9626,-0.4463,-0.0181,9.7863,-55.1603,-250.1374
1.928,-0.4458,-0.0481,10.7939,-52.1298,-250.1374
1.896,-0.4514,-0.0605,11.855,-49.0687,-250.1374
1.8555,-0.4514,-0.0798,12.771,-46.0305,-250.1374
1.8086,-0.4478,-0.0896,13.3435,-43.2595,-250.1374
1.7637,-0.4456,-0.1155,14.1069,-40.8931,-250.1374
1.7168,-0.4397,-0.1331,14.5802,-38.3435,-250.1374
1.6978,-0.4385,-0.1475,14.5954,-36.084,-250.1374
1.6301,-0.4153,-0.1604,14.771,-33.5878,-250.1374
1.5828,-0.405,-0.1726,14.3053,-32.2366,-250.1374
1.5369,-0.407,-0.1885,13.7176,-31.1221,-250.1374
1.5078,-0.3945,-0.1917,12.9542,-30.313,-250.1374
1.4678,-0.386,-0.2058,11.687,-29.3359,-250.1374
1.4231,-0.3752,-0.2224,9.8015,-28.1221,-250.1374
1.3811,-0.3691,-0.2212,7.9695,-26.9618,-250.1374
1.3259,-0.3645,-0.2256,5.771,-25.7252,-250.1374
1.2668,-0.3594,-0.2053,3.3053,-24.6794,-250.1374
1.217,-0.3528,-0.1985,0.9389,-23.6336,-250.1374
1.1509,-0.356,-0.1699,-1.3435,-22.8702,-250.1374
1.0864,-0.3452,-0.1506,-3.5191,-22.0687,-250.1374
1.0537,-0.3479,-0.1396,-5.1832,-21.229,-250.1374
0.999,-0.3572,-0.1091,-6.7634,-21.2977,-250.1374
0.9248,-0.3564,-0.0847,-7.6336,-21.6565,-250.1374
0.8489,-0.3523,-0.0588,-8.3664,-22.6412,-250.1374
0.7791,-0.3418,-0.0247,-8.7786,-24.5114,-250.1374
0.7163,-0.3364,-0.0063,-8.5878,-26.5114,-250.1374
0.6414,-0.3274,0.0105,-8.0153,-28.9847,-250.1374
0.5828,-0.3337,0.0486,-7.1679,-32.3282,-250.1374
0.5645,-0.3342,0.0415,-5.9389,-35.313,-250.1374
0.5139,-0.3315,0.064,-4.5954,-38.5191,-250.1374
0.4539,-0.3223,0.073,-2.7252,-41.687,-250.1374
0.4121,-0.3286,0.082,-1.145,-44.4275,-250.1374
0.3608,-0.3262,0.0935,0.8626,-46.6031,-250.1374
0.3198,-0.3125,0.114,3.3435,-48.0763,-250.1374
0.271,-0.3159,0.1326,5.3969,-48.4351,-250.1374
0.2197,-0.3113,0.1497,7.6794,-48.0229,-250.1374
0.1853,-0.2917,0.1509,10.0763,-47.3511,-250.1374
0.168,-0.2883,0.1494,12.8015,-46.2137,-250.1374
0.1121,-0.2822,0.1562,15.8702,-44.6794,-250.1374
0.0718,-0.2581,0.1511,19.0611,-42.4427,-250.1374
0.0249,-0.2373,0.1528,22.9542,-40.1679,-250.1374
-0.0227,-0.2139,0.1458,27.1221,-37.2137,-250.1374
-0.074,-0.1956,0.1289,31.5267,-33.6412,-250.1374
-0.1221,-0.1646,0.1184,36.1832,-29.7328,-250.1374
-0.1687,-0.1592,0.1057,41.1221,-25.1145,-250.1374
-0.1794,-0.1499,0.0735,46.0534,-19.1298,-250.1374
-0.2302,-0.1272,0.0208,51.1603,-12.4656,-250.1374
-0.283,-0.1118,-0.0088,56.3893,-5.6489,-250.1374
-0.3337,-0.0867,-0.0479,61.8397,1.1985,-250.1374
-0.4019,-0.0701,-0.0776,66.8779,7.1603,-250.1374
-0.4524,-0.0488,-0.0884,72.0611,12.6412,-250.1374
-0.5005,-0.0229,-0.1104,76.6412,17.542,-250.1374
-0.5532,0.002,-0.1328,81.0229,20.9542,-250.1374
-0.5793,0.0154,-0.1536,85.0076,23.916,-250.1374
-0.6233,0.0408,-0.1768,88.5725,26.0458,-250.1374
-0.6643,0.0696,-0.2041,91.7786,27.3511,-250.1374
-0.7034,0.1082,-0.2253,94.4657,27.7481,-250.1374
-0.7324,0.1506,-0.2615,96.8931,27.084,-250.1374
-0.7646,0.1895,-0.2805,98.4122,25.0611,-250.1374
-0.7913,0.2205,-0.293,99.5496,22.3817,-250.1374
-0.8164,0.2617,-0.3359,100.1145,18.9924,-250.1374
-0.8108,0.2798,-0.3494,99.7557,15.1221,-250.1374
-0.834,0.3196,-0.3979,98.6794,9.0763,-250.1374
-0.8381,0.355,-0.4336,97.1145,4.0458,-243.7557
-0.8335,0.3643,-0.4646,94.4885,-1.9084,-231.084
-0.8291,0.3843,-0.4973,91.4351,-7.2672,-220.6183
-0.8203,0.4011,-0.5283,88.3359,-12.6183,-211.2519
-0.8066,0.4238,-0.5588,84.8855,-17.771,-202.7557
-0.7893,0.4377,-0.5906,80.9237,-22.4198,-194.687
-0.7803,0.4478,-0.5974,76.9389,-26.1298,-187.4046
-0.7708,0.4714,-0.6313,72.7252,-29.626,-181.0076
-0.7612,0.4968,-0.6541,68.626,-32.4198,-175.1527
-0.7517,0.5146,-0.6667,64.8931,-34.6183,-170.3206
-0.7507,0.5295,-0.6804,61.0076,-36.626,-166.0305
-0.7458,0.5405,-0.697,57.1908,-38.2137,-162.2061
-0.7466,0.5503,-0.7017,53.3588,-39.4885,-159.1527
-0.751,0.5645,-0.7156,49.4198,-40.9084,-156.4046
-0.7551,0.5679,-0.7197,45.8779,-42.3511,-153.458
-0.7654,0.572,-0.7341,41.9695,-43.771,-150.7023
-0.7754,0.5818,-0.7263,38.4427,-45.374,-148.0305
-0.7874,0.5845,-0.7278,34.7786,-47.3817,-145.0763
-0.7969,0.5833,-0.719,31.1374,-48.9924,-141.542
-0.8088,0.5891,-0.7119,27.4962,-50.7939,-137.855
-0.8201,0.585,-0.7158,23.9389,-52.542,-133.4886
-0.8296,0.5859,-0.7139,20.3282,-53.9847,-128.4504
-0.834,0.5784,-0.7095,17.3282,-54.8397,-123.8702
-0.8394,0.5691,-0.7112,13.7481,-55.7786,-117.771
-0.8486,0.5676,-0.6941,10.7099,-56.0611,-111.5573
-0.8396,0.5535,-0.6895,7.9771,-56.0611,-105.458
-0.8408,0.553,-0.6824,5.2977,-55.0382,-98.313
-0.8352,0.55,-0.6763,2.9313,-53.0687,-91.6336
-0.8318,0.5427,-0.6863,1.0229,-50.2519,-84.5267
-0.8225,0.5398,-0.6863,-0.7786,-46.6489,-77.4275
-0.8188,0.5273,-0.6768,-2.5496,-42.6947,-70.1679
-0.8088,0.5266,-0.688,-3.9695,-37.7176,-62.9237
-0.7974,0.5298,-0.686,-5.4122,-32.2519,-55.8397
-0.7852,0.5208,-0.6958,-6.8015,-26.2824,-48.6412
-0.7715,0.5217,-0.6868,-8.1908,-19.7176,-41.8168
-0.7683,0.5249,-0.6848,-9.6107,-12.2824,-35.2366
-0.7588,0.5208,-0.6814,-10.9313,-4.7252,-28.9389
-0.7554,0.5198,-0.6755,-12.2672,2.9237,-22.5725
-0.7537,0.5178,-0.6782,-13.4962,10.4046,-16.3206
-0.7507,0.5161,-0.6677,-14.9847,17.687,-10.4733
-0.7542,0.5183,-0.6724,-16.3359,24.8702,-4.4809
-0.7585,0.5127,-0.6594,-17.5649,31.7557,1.687
-0.7593,0.5146,-0.6553,-18.7481,38.5267,7.1603
-0.7642,0.5037,-0.6458,-20.3588,44.5878,13.084
-0.7683,0.4993,-0.6274,-21.8321,50.0153,18.7023
-0.7595,0.4858,-0.6199,-23.1603,55.0611,24.2672
-0.7617,0.4692,-0.6033,-24.5038,59.1908,29.687
-0.7637,0.4707,-0.6062,-25.7634,62.687,35.3359
-0.761,0.4524,-0.5928,-27.1069,65.9313,40.687
-0.7505,0.4348,-0.5779,-28.0305,68.2366,45.9924
-0.7488,0.4221,-0.563,-28.8626,69.7634,51.3053
-0.7388,0.407,-0.5591,-29.7634,70.6489,56.542
-0.7278,0.3948,-0.5479,-30.5114,70.9847,61.1679
-0.7163,0.3965,-0.54,-31.5267,69.9924,67.145
-0.7058,0.373,-0.5237,-32.4809,68.6565,71.7557
-0.6885,0.3677,-0.5137,-33.0611,66.8702,75.3893
-0.6829,0.3533,-0.5159,-33.8702,64.374,78.9847
-0.6738,0.345,-0.501,-34.4275,61.7557,81.8397
-0.6565,0.3418,-0.5054,-35.0992,58.5191,84.4809
-0.645,0.3298,-0.4919,-35.7939,55.1221,86.6489
-0.6533,0.3301,-0.4836,-36.4198,51.0763,88.3817
-0.6382,0.3267,-0.4771,-37.0,46.6183,89.9466
-0.6365,0.3188,-0.47,-37.5649,41.8321,91.458
-0.6235,0.3213,-0.4707,-38.4275,36.3282,92.8473
-0.6187,0.3103,-0.4622,-39.2137,30.7405,94.229
-0.6003,0.3027,-0.4556,-40.1145,25.0763,95.2595
-0.5928,0.2988,-0.4536,-41.1908,19.2595,96.8779
-0.5847,0.2954,-0.4573,-42.2366,13.3588,98.4046
-0.5796,0.2883,-0.4548,-43.3664,7.3664,100.2061
-0.5605,0.2842,-0.4583,-44.5038,2.0153,101.8702
-0.5518,0.2793,-0.4531,-45.6718,-3.2519,103.6031
-0.5295,0.28,-0.4561,-46.9542,-7.9237,105.1985
-0.5134,0.2715,-0.4487,-48.4427,-12.229,106.6718
-0.4897,0.2747,-0.4463,-49.4885,-15.7939,108.458
-0.4846,0.2727,-0.437,-50.542,-19.2214,109.5496
-0.4722,0.2788,-0.4348,-51.458,-21.8321,110.9084
-0.4663,0.2852,-0.4219,-52.2443,-24.4427,112.3282
-0.4561,0.2771,-0.4133,-52.771,-26.6412,113.3282
-0.4431,0.2729,-0.405,-53.3435,-28.0611,114.6031
-0.4373,0.2766,-0.4053,-53.8321,-29.1603,115.7863
-0.4294,0.2773,-0.3914,-53.8244,-29.8168,117.1374
-0.4277,0.281,-0.3899,-53.8092,-29.9389,118.2977
-0.4241,0.2749,-0.3984,-53.6107,-29.7786,119.8855
-0.4263,0.2656,-0.3757,-53.6641,-29.0153,121.5267
-0.4258,0.2717,-0.387,-53.4427,-28.1221,123.1908
-0.4265,0.2671,-0.3745,-53.374,-27.2824,125.7176
-0.4338,0.269,-0.3621,-53.313,-25.8626,128.0382
-0.4434,0.2656,-0.3667,-53.1298,-24.5802,131.0916
-0.4434,0.2634,-0.3667,-52.9847,-23.0992,134.6488
-0.4578,0.2629,-0.3684,-53.0763,-21.4427,138.5191
-0.4663,0.2576,-0.3662,-53.2137,-19.2519,143.0076
-0.468,0.2556,-0.3579,-53.542,-16.8855,147.6488
-0.4714,0.2566,-0.3655,-53.7252,-14.1679,152.5114
-0.488,0.2656,-0.3706,-54.0382,-10.374,158.7939
-0.5,0.2678,-0.3711,-54.4351,-6.7176,164.7328
-0.5107,0.271,-0.3643,-54.8397,-3.1832,171.1221
-0.5166,0.2795,-0.356,-55.4275,0.4122,177.7786
-0.5273,0.2729,-0.3523,-55.9695,3.9313,184.7863
-0.5396,0.269,-0.3437,-56.8397,7.855,191.8244
-0.5439,0.2627,-0.3447,-57.7252,11.6565,198.8855
-0.5454,0.2537,-0.3394,-58.7099,15.4427,206.2214
-0.5518,0.2551,-0.314,-59.7939,19.0763,213.7023
-0.554,0.2437,-0.3025,-60.8244,22.3893,221.4962
-0.5591,0.2329,-0.2854,-61.7863,25.1069,228.8855
-0.5598,0.2339,-0.2727,-62.9542,28.0,236.8321
-0.5667,0.2141,-0.2532,-63.9771,30.4809,244.4657
-0.5613,0.2014,-0.2378,-64.8244,33.0382,250.1298
-0.5652,0.1865,-0.2158,-65.4504,35.3359,250.1298
-0.5579,0.1702,-0.1899,-66.1908,37.5038,250.1298
-0.5613,0.165,-0.1704,-66.7099,38.8931,250.1298
-0.5515,0.1497,-0.1355,-66.7939,39.3969,250.1298
-0.5461,0.1396,-0.1057,-66.5191,38.8702,250.1298
-0.5293,0.1318,-0.074,-66.313,36.8779,250.1298
-0.5212,0.1238,-0.0544,-65.6565,33.5496,250.1298
-0.5017,0.104,-0.0381,-65.1374,29.3511,250.1298
-0.4695,0.0852,-0.0112,-64.3359,24.687,250.1298
-0.4341,0.0735,0.002,-63.1374,19.2595,250.1298
-0.3901,0.0413,0.0271,-61.9847,12.771,250.1298
-0.3357,0.0232,0.03,-60.5496,5.8626,250.1298
-0.2798,0.0027,0.0403,-58.6794,-1.6794,250.1298
-0.2217,-0.0239,0.0457,-56.6947,-10.4046,250.1298
-0.1487,-0.0464,0.0347,-54.3435,-18.7939,250.1298
-0.1182,-0.053,0.0334,-52.2137,-26.9008,250.1298
-0.0459,-0.075,0.0225,-50.1374,-35.0992,250.1298
0.0293,-0.0896,0.0049,-47.5649,-43.3282,250.1298
0.0996,-0.0986,-0.0186,-45.2214,-50.1679,250.1298
0.1702,-0.0947,-0.05,-42.9695,-55.9389,250.1298
0.2446,-0.0979,-0.0852,-40.5802,-59.7481,250.1298
0.3169,-0.0972,-0.1086,-38.4733,-62.3359,250.1298
0.3926,-0.1062,-0.1292,-36.3282,-64.4962,250.1298
0.4211,-0.103,-0.146,-34.3817,-66.0153,250.1298
0.4937,-0.1079,-0.1506,-32.5802,-67.2672,250.1298
0.5532,-0.1099,-0.1758,-31.3053,-68.6947,250.1298
0.6077,-0.1091,-0.1929,-30.145,-70.2748,250.1298
0.6628,-0.1099,-0.1982,-29.3206,-71.1985,250.1298
0.7256,-0.103,-0.2056,-28.5802,-71.8931,250.1298
0.7764,-0.1016,-0.2217,-28.229,-72.3893,250.1298
0.8308,-0.1016,-0.2212,-28.1985,-72.5038,250.1298
0.8604,-0.1045,-0.2263,-28.374,-71.9771,250.1298
0.9131,-0.1106,-0.2334,-29.0,-71.1908,250.1298
0.9707,-0.1096,-0.2271,-29.8779,-69.6489,250.1298
1.0205,-0.1201,-0.2231,-30.6794,-67.7939,250.1298
1.0681,-0.1221,-0.217,-31.7481,-64.9313,250.1298
1.1165,-0.1133,-0.2041,-33.0458,-61.7634,250.1298
1.1692,-0.1125,-0.1917,-33.9237,-57.9466,250.1298
1.2063,-0.0937,-0.1672,-34.6183,-53.5115,250.1298
1.2234,-0.0864,-0.1487,-34.9924,-48.8626,250.1298
1.2556,-0.0715,-0.1096,-35.687,-43.5954,250.1298
1.2871,-0.0664,-0.0881,-36.3359,-38.2519,250.1298
1.3284,-0.0649,-0.0718,-36.2595,-32.0382,250.1298
1.3469,-0.0771,-0.0293,-35.1069,-26.4122,250.1298
1.3586,-0.0847,0.0034,-33.687,-20.4962,250.1298
1.3823,-0.1057,0.0396,-31.5954,-14.1603,250.1298
1.4075,-0.1284,0.0828,-29.5573,-6.9237,250.1298
1.429,-0.1411,0.1101,-27.2061,0.5802,250.1298
1.4407,-0.1523,0.1294,-24.8626,7.8855,250.1298
1.4575,-0.1824,0.1772,-22.1527,13.6718,250.1298
1.4717,-0.2134,0.22,-19.5573,19.1069,250.1298
1.4939,-0.2285,0.251,-16.9618,23.6794,250.1298
1.4988,-0.2371,0.2993,-14.1069,27.916,250.1298
1.5151,-0.2605,0.3418,-10.8015,30.9313,250.1298
1.5176,-0.2673,0.3809,-7.3359,32.1832,250.1298
1.532,-0.2668,0.4272,-2.4809,32.9924,250.1298
1.5454,-0.2812,0.4683,2.0305,32.4351,250.1298
1.5662,-0.2815,0.491,6.7557,30.8397,250.1298
1.5818,-0.291,0.5112,12.0458,28.6718,250.1298
1.6152,-0.3049,0.5283,17.5191,26.3053,250.1298
1.6436,-0.3262,0.5354,22.916,23.8473,250.1298
1.6638,-0.333,0.5342,28.6412,20.5725,250.1298
1.7031,-0.3457,0.5132,34.0611,17.3893,250.1298
1.7612,-0.3542,0.4873,40.1145,13.855,250.1298
1.8169,-0.3721,0.4504,45.6794,10.0153,250.1298
1.8884,-0.3652,0.397,51.2901,6.3053,250.1298
1.9695,-0.3652,0.3689,56.8855,2.4122,250.1298
1.9999,-0.3645,0.3181,61.9542,-0.9924,250.1298
1.9999,-0.3613,0.2764,66.3282,-4.0916,250.1298
1.9999,-0.3584,0.2356,70.1908,-6.5573,250.1298
1.9999,-0.3462,0.2085,73.4351,-8.626,250.1298
1.9999,-0.3418,0.1545,76.0,-10.1985,250.1298
1.9999,-0.3269,0.103,78.1069,-10.9008,250.1298
1.9999,-0.3008,0.0327,79.4275,-10.8473,250.1298
1.9999,-0.2886,-0.0283,80.5191,-10.1832,250.1298
1.9999,-0.2644,-0.0828,80.6947,-8.9542,250.1298
1.9999,-0.2458,-0.1323,80.3893,-6.7252,250.1298
1.9999,-0.2256,-0.1721,78.8168,-4.374,250.1298
1.9999,-0.2148,-0.1877,76.7481,-1.2519,250.1298
1.9999,-0.186,-0.2268,74.2824,2.1679,234.7481
1.9999,-0.1602,-0.2671,70.7481,5.5802,218.0458
1.9999,-0.1348,-0.2944,67.145,9.6794,200.7481
1.9999,-0.1104,-0.3308,63.313,14.0229,183.1832
1.9999,-0.0842,-0.3596,58.687,18.5267,165.5343
1.9999,-0.0703,-0.3796,54.0916,23.313,148.458
1.9999,-0.0576,-0.3967,49.2901,27.8015,131.4809
1.9999,-0.043,-0.3984,44.4198,32.6107,115.2824
1.9999,-0.022,-0.396,39.458,36.7023,99.9389
1.9999,0.0046,-0.3906,34.7252,39.9847,85.5191
1.9999,0.0312,-0.3774,30.3511,42.7786,72.7939
1.9999,0.0552,-0.3613,26.6718,44.6794,62.0611
1.9999,0.0862,-0.3423,23.1374,46.5573,52.9237
1.9999,0.1001,-0.3169,20.4656,47.6565,45.1679
1.9999,0.1104,-0.3081,17.7634,48.2061,38.9084
1.9999,0.1157,-0.3093,16.1145,48.4198,34.1298
1.9999,0.1206,-0.2898,14.5038,49.1298,30.3206
1.9999,0.1206,-0.2944,13.229,49.687,27.5496
1.9999,0.127,-0.2744,11.9542,50.458,25.6794
1.9258,0.1296,-0.2612,11.2672,50.8397,24.8397
1.8472,0.1431,-0.2441,10.8168,51.1832,24.6641
1.7788,0.1492,-0.2346,9.9542,51.1756,25.7634
1.7068,0.1619,-0.2126,9.3435,51.4809,27.3282
1.6543,0.1755,-0.2043,8.8015,51.5573,29.8702
1.6375,0.1772,-0.2056,8.1603,51.6641,33.0229
1.5918,0.1902,-0.1973,7.5802,51.626,36.4122
1.5469,0.1963,-0.1765,7.0611,51.3435,40.5878
1.5195,0.1887,-0.1653,6.8397,51.0382,44.916
1.4937,0.1792,-0.1565,6.4809,50.7252,49.687
1.4626,0.1716,-0.1418,6.5038,49.9466,54.2595
1.4517,0.1641,-0.1238,6.374,48.4656,59.5954
1.4409,0.1562,-0.1233,6.5038,47.1603,64.1679
1.4402,0.1514,-0.1099,6.626,45.3511,68.4275
1.4431,0.1426,-0.104,6.6718,42.916,72.3435
1.4504,0.1309,-0.0823,7.1069,40.3359,75.6718
1.4736,0.1165,-0.0771,6.8931,37.5038,78.0992
1.4753,0.113,-0.083,6.9542,34.313,80.2748
1.5063,0.0994,-0.0752,6.9695,31.0,81.6336
1.5356,0.093,-0.0696,6.8092,27.5649,82.4046
1.5586,0.0793,-0.0559,6.626,23.7557,82.4046
1.5911,0.071,-0.0522,6.4504,19.3969,81.5802
1.6128,0.0649,-0.0427,6.3206,15.3282,80.6031
1.6282,0.053,-0.0413,6.2061,11.3053,78.7939
1.6641,0.0439,-0.0259,6.0611,7.4198,76.5343
1.6982,0.0388,-0.0232,6.1298,3.626,74.0382
1.7065,0.0276,-0.0259,6.2672,-0.0534,71.0687
1.7314,0.0203,-0.0271,6.0382,-3.1679,67.5573
1.7537,0.0059,-0.0273,6.4275,-6.4046,64.1527
1.7705,0.0017,-0.0332,6.855,-9.0229,60.5267
1.7866,-0.0076,-0.0281,7.3359,-11.2595,56.4656
1.7996,-0.0144,-0.0286,8.1603,-13.2443,52.3282
1.8059,-0.0264,-0.0371,8.6489,-15.0305,48.1908
1.8174,-0.0188,-0.0403,9.6031,-16.1679,43.8092
1.8245,-0.022,-0.051,10.5267,-17.1298,39.2977
1.8242,-0.0269,-0.0415,11.3282,-17.6718,34.9389
1.8228,-0.0261,-0.0491,12.1145,-17.6794,30.0916
1.8069,-0.0339,-0.052,12.7328,-17.6336,25.5802
1.8008,-0.0391,-0.0598,13.3664,-17.1985,21.2214
1.7815,-0.0378,-0.0684,14.2519,-16.6336,16.3664
1.761,-0.0422,-0.0693,14.8855,-16.084,11.8015
1.7292,-0.0364,-0.0764,15.5649,-15.5802,7.9618
1.7195,-0.0352,-0.0769,16.1527,-14.6641,4.0534
1.6877,-0.0317,-0.0889,16.9389,-13.5191,0.2519
1.6489,-0.0369,-0.1001,17.5649,-12.2137,-2.7481
1.6108,-0.0254,-0.106,18.3511,-10.626,-5.4656
1.5774,-0.0215,-0.1108,19.084,-8.9618,-7.8321
1.5427,-0.0186,-0.1118,19.5802,-7.3435,-9.6794
1.4983,-0.0095,-0.1316,20.0076,-5.5115,-11.1603
1.4565,-0.0056,-0.1365,20.626,-4.1374,-12.313
1.4329,-0.0093,-0.144,20.9008,-2.7863,-13.3053
1.3992,-0.0037,-0.1489,21.4962,-1.4733,-14.0687
1.3533,-0.0066,-0.1533,21.9084,-0.7176,-14.2366
1.3276,-0.0005,-0.1472,22.0229,-0.5496,-14.3206
1.2915,0.0081,-0.1538,22.3817,-0.8244,-14.5496
1.2576,0.0171,-0.175,22.7328,0.0916,-14.4198
1.2231,0.0144,-0.1699,22.8702,0.4122,-14.6183
1.1919,0.0068,-0.1816,23.1832,0.4122,-13.9847
1.1548,0.0151,-0.199,23.3053,0.084,-13.374
1.1379,0.0156,-0.2104,23.7252,-0.2519,-12.4962
1.1216,0.0183,-0.2019,23.8931,-0.7481,-11.4122
1.0994,0.0247,-0.2056,24.1908,-1.8092,-10.2519
1.0737,0.0291,-0.2212,24.4656,-3.1221,-8.8397
1.0586,0.0393,-0.2249,24.1374,-4.145,-7.2748
1.0461,0.0488,-0.2268,23.9847,-5.855,-5.3282
1.0437,0.0608,-0.2415,23.2366,-7.2214,-3.145
1.041,0.0613,-0.2415,22.4122,-8.5191,-0.7939
1.03,0.0586,-0.2434,21.8626,-10.1145,1.3969
1.0403,0.0632,-0.2593,20.6031,-10.8168,3.2977
1.0415,0.064,-0.2659,19.7557,-11.4885,5.145
1.0488,0.0593,-0.2722,18.4809,-11.8931,6.7176
1.0618,0.0559,-0.2668,17.1221,-11.8931,8.2366
1.0737,0.0464,-0.2898,15.8092,-11.9695,9.2977
1.0935,0.042,-0.2852,14.8244,-12.0229,9.9389
1.1147,0.0461,-0.2817,13.5954,-11.8931,10.0611
1.1345,0.0464,-0.29,12.1832,-11.374,10.1374
1.1514,0.0381,-0.2932,11.0763,-10.8244,9.8321
1.168,0.0339,-0.2886,10.1756,-10.0534,9.4122
1.1807,0.0388,-0.2927,8.9237,-9.0687,8.3206
1.187,0.0391,-0.2881,8.0,-7.7786,6.8779
1.1992,0.0349,-0.2769,7.0763,-6.5496,5.3359
1.2085,0.0239,-0.2771,6.0534,-5.3664,3.0229
1.2183,0.0337,-0.2659,5.4656,-3.9924,0.7252
1.2163,0.0256,-0.262,4.4733,-3.3282,-1.6565
1.2178,0.0269,-0.2546,3.7023,-2.5191,-4.4504
1.2024,0.0276,-0.2588,2.916,-2.2519,-6.9084
1.2053,0.0259,-0.2336,2.0,-2.1221,-9.6183
1.1926,0.0244,-0.2236,1.1527,-2.1298,-12.2061
1.1858,0.0283,-0.2197,0.4427,-2.6412,-14.5954
1.1748,0.0305,-0.2073,-0.0458,-3.0382,-16.6794
1.1714,0.0288,-0.2024,-0.7557,-3.2977,-18.7328
1.1521,0.0283,-0.1882,-1.1908,-3.4656,-20.6641
1.1375,0.0269,-0.1765,-1.6031,-3.7557,-22.3817
1.1208,0.0256,-0.1775,-1.9313,-4.1145,-23.916
1.1011,0.0212,-0.1741,-2.2824,-4.3969,-25.374
1.0862,0.0188,-0.1711,-2.1221,-4.1908,-26.7557
1.0701,0.0178,-0.1592,-2.1985,-4.1221,-27.6489
1.0598,0.0146,-0.1543,-1.8244,-4.0763,-28.5114
1.0339,0.0186,-0.1536,-1.8702,-3.7023,-29.4427
1.0171,0.0232,-0.1516,-1.5725,-3.1374,-29.7557
0.9893,0.0232,-0.1541,-1.2519,-2.4733,-29.8015
0.9707,0.0254,-0.1479,-0.9389,-1.7481,-29.9847
0.9497,0.0278,-0.1489,-0.7252,-1.1374,-29.5878
0.9309,0.0176,-0.1448,-0.3817,-0.6718,-29.0229
0.9131,0.0164,-0.1458,0.1908,-0.2824,-28.6947
0.9084,0.0242,-0.1321,0.7863,0.0076,-27.5191
0.8826,0.0229,-0.1313,1.2977,0.1374,-26.4198
0.8743,0.0303,-0.1211,1.7099,0.458,-25.1832
0.8557,0.0405,-0.1147,2.4046,-0.0076,-23.1985
0.8406,0.0515,-0.1025,3.2366,-0.2519,-21.1374
0.8394,0.0542,-0.1111,3.9924,-0.9237,-18.9237
0.8354,0.0547,-0.1038,5.0534,-1.4809,-16.4351
0.8325,0.054,-0.1072,5.7939,-1.9542,-14.0534
0.8367,0.0537,-0.1221,6.5496,-2.2824,-11.3511
0.8335,0.0505,-0.1206,7.3053,-3.0076,-8.9389
0.8472,0.0532,-0.1133,7.9313,-3.2214,-6.4351
0.8467,0.0542,-0.1194,8.5954,-3.374,-4.2366
0.8525,0.0593,-0.1228,9.2672,-3.9466,-2.1908
0.8665,0.0593,-0.1206,9.6641,-3.9771,-0.4504
0.8799,0.064,-0.1375,10.2137,-4.2137,1.1679
0.9001,0.0652,-0.1333,10.6947,-4.1221,2.9542
0.9138,0.0654,-0.1316,11.0153,-3.9847,4.1832
0.9373,0.0684,-0.1406,11.2214,-3.8397,5.0916
0.949,0.0723,-0.1509,11.4504,-3.5573,5.8473
0.967,0.073,-0.1514,11.5038,-2.6794,6.4809
0.9827,0.0754,-0.1621,11.458,-1.9389,6.8855
1.0012,0.0808,-0.1606,11.1069,-0.9389,6.771
1.0176,0.0825,-0.167,11.0229,-0.084,6.9084
1.0344,0.0837,-0.1685,10.8702,0.8702,6.3893
1.0437,0.0889,-0.1809,10.5267,1.9542,6.0992
1.0525,0.0967,-0.1885,10.1832,2.9008,5.5191
1.0569,0.0916,-0.1951,9.6947,3.8473,4.6489
1.0603,0.0972,-0.1858,9.1756,4.7481,3.8015
1.075,0.0999,-0.1807,8.5649,5.6183,3.0076
1.0842,0.1006,-0.1838,7.9847,5.9389,2.084
1.075,0.1033,-0.1824,7.3511,6.3282,1.2443
1.0901,0.1047,-0.1726,6.7099,6.5725,0.5878
1.0879,0.1143,-0.1829,5.9847,6.8473,-0.2443
1.0881,0.1086,-0.1711,5.2901,7.229,-0.8473
1.0896,0.1116,-0.1716,4.6489,7.4809,-1.7252
1.0962,0.1101,-0.1628,4.0076,8.0305,-2.542
1.094,0.1064,-0.1621,3.4427,8.3435,-3.0916
1.0947,0.1016,-0.1653,2.9008,8.9313,-3.6641
1.0869,0.0925,-0.1687,2.6565,9.771,-4.4733
1.0767,0.0933,-0.1714,2.2443,10.4122,-5.2443
1.0735,0.0918,-0.1589,2.1832,11.0458,-6.0992
1.0605,0.0852,-0.1521,2.0763,11.2977,-6.6718
1.0439,0.0835,-0.136,2.2977,11.0992,-6.8244
1.0361,0.085,-0.1465,2.3206,10.4656,-6.8779
1.0222,0.0859,-0.1372,2.2824,9.8702,-7.0611
1.0198,0.0859,-0.1436,2.4427,8.8779,-6.4275
1.01,0.0798,-0.1399,2.5954,7.6641,-5.9466
1.0034,0.082,-0.1223,2.5725,6.5802,-5.229
0.9966,0.0713,-0.1313,2.687,5.2977,-4.3969
0.989,0.083,-0.1321,2.7099,4.0153,-3.7939
0.99,0.0806,-0.1355,2.7023,3.0153,-2.9618
0.9841,0.0774,-0.1387,2.6718,1.4351,-1.9237
0.9849,0.0769,-0.1389,2.8473,-0.084,-1.2748
0.9863,0.0837,-0.1345,2.7481,-1.2977,-0.3969
0.9929,0.0811,-0.1382,2.7557,-2.374,0.1221
0.9949,0.0813,-0.1267,2.8779,-3.771,0.687
1.0049,0.0735,-0.1384,2.9389,-4.8855,1.0382
1.0068,0.084,-0.1238,2.8092,-5.8473,1.8015
1.0117,0.0818,-0.1313,2.9084,-6.9618,1.9695
1.0208,0.0762,-0.1416,3.0458,-7.9084,2.2061
1.0261,0.0767,-0.1323,2.8626,-8.5496,2.4885
1.0366,0.0825,-0.1328,3.084,-9.0687,2.5954
1.0415,0.0745,-0.123,3.3053,-9.1756,2.7634
1.0535,0.0774,-0.123,3.3282,-9.374,2.8855
1.0623,0.074,-0.1277,3.5573,-9.458,2.7023
1.0742,0.0771,-0.1284,3.6031,-9.1527,2.5878
1.0762,0.0801,-0.1248,3.8702,-8.8931,2.3664
1.0842,0.0793,-0.1267,4.0763,-8.229,2.0534
1.0947,0.0815,-0.1182,4.1298,-7.7634,1.771
1.1025,0.0842,-0.1279,4.4122,-6.7557,1.5191
1.1138,0.0791,-0.1182,4.5725,-5.7328,1.0229
1.1118,0.071,-0.124,4.6794,-4.7405,0.5267
1.1082,0.071,-0.1167,4.855,-3.1832,-0.084
1.1145,0.0674,-0.1096,5.4427,-2.0534,-0.5649
1.115,0.0674,-0.1145,5.7939,-0.8473,-1.0153
1.1162,0.0696,-0.1155,6.0305,0.4198,-1.5573
1.1121,0.0684,-0.1033,6.7252,1.4504,-2.1527
1.1057,0.0627,-0.0986,7.1145,2.374,-2.5802
1.105,0.063,-0.105,7.6794,3.2519,-3.2519
1.1042,0.0632,-0.1047,8.1679,4.0076,-3.5496
1.0984,0.0554,-0.1091,8.4198,4.7328,-3.9008
1.0945,0.0659,-0.0989,8.7405,5.2824,-4.1985
1.0898,0.0601,-0.0984,9.2595,6.084,-4.2061
1.0935,0.0581,-0.0945,9.4427,6.5954,-4.1832
1.0881,0.0605,-0.0884,9.4733,7.0763,-4.3588
1.0884,0.0625,-0.105,9.8015,7.5725,-4.3588
1.082,0.0554,-0.0962,9.8702,7.9542,-4.6489
1.0854,0.0571,-0.1089,9.9237,8.5038,-4.626
1.0759,0.0537,-0.1118,10.2824,8.7634,-4.6794
1.073,0.0493,-0.1147,10.2595,9.3893,-5.3664
1.0625,0.0479,-0.1221,10.4427,9.5802,-5.5954
1.0483,0.0439,-0.1257,10.7023,10.145,-6.145
1.0388,0.0447,-0.1318,10.9008,10.1069,-6.458
1.0322,0.0503,-0.1284,11.2595,9.4275,-6.5649
1.0244,0.0452,-0.1387,11.2519,8.7939,-6.5267
1.0039,0.0522,-0.1306,11.2061,7.9771,-6.2137
1.0071,0.0549,-0.1399,11.1908,6.9695,-5.771
1.0002,0.0574,-0.1431,10.8702,6.0305,-4.9237
0.9875,0.0605,-0.1521,10.3206,4.8855,-3.9389
0.9883,0.0554,-0.1577,10.0076,3.6641,-3.2595
0.9836,0.0557,-0.1511,9.1832,1.9847,-2.3053
0.978,0.0559,-0.1584,8.7176,0.4046,-1.3817
0.9827,0.0591,-0.1584,8.1298,-1.4885,-0.4809
0.9817,0.0645,-0.1694,7.3969,-3.2977,0.2061
0.9937,0.0645,-0.1707,6.7939,-5.1527,0.8626
0.9998,0.0691,-0.1704,6.1298,-7.0916,1.3282
1.0037,0.0706,-0.1704,5.5573,-8.6489,1.855
