ax,ay,az,gx,gy,gz
1.4275,-0.1003,0.1179,6.9237,-2.0305,20.0763
1.4607,-0.106,0.1348,7.2443,-4.1374,19.7863
1.4888,-0.1189,0.1431,7.6336,-6.3817,19.5573
1.5166,-0.1206,0.1548,8.2824,-8.7634,19.3588
1.5491,-0.1201,0.1631,9.0534,-10.6412,18.6183
1.5779,-0.1274,0.1785,9.9695,-13.0382,18.0
1.6008,-0.1296,0.1824,11.0763,-15.1832,17.1908
1.6262,-0.1348,0.1919,12.3511,-17.2519,16.2595
1.6406,-0.1345,0.2073,13.7023,-19.6718,15.2061
1.6736,-0.1294,0.2041,15.3206,-22.4351,14.0076
1.7002,-0.1279,0.218,16.8931,-24.8015,12.9618
1.7244,-0.1333,0.1975,18.542,-26.6489,11.687
1.7566,-0.1392,0.1826,20.1527,-27.458,10.4504
1.792,-0.1313,0.1687,22.0305,-27.8931,9.8626
1.8157,-0.1431,0.1738,23.8702,-30.0611,9.1603
1.8569,-0.1316,0.1646,25.6718,-32.2519,8.4809
1.8853,-0.1272,0.1428,28.0305,-34.6565,7.2824
1.9255,-0.1123,0.134,29.5267,-36.3053,6.6794
1.9861,-0.1116,0.1106,30.6107,-37.2366,5.7252
1.9999,-0.1072,0.0806,31.2901,-36.7786,4.7252
1.9999,-0.1194,0.0574,31.8702,-35.8244,3.5878
1.9999,-0.1299,-0.0112,32.0992,-34.0153,2.5038
1.9999,-0.1355,0.0769,32.7481,-33.4962,0.9389
1.9999,-0.1294,0.0591,33.0687,-32.4046,-1.0382
1.9999,-0.1355,0.0239,33.0382,-30.5344,-3.3282
1.9999,-0.1284,-0.0017,33.0916,-28.1679,-6.1221
1.9999,-0.1394,-0.0315,33.2061,-25.0687,-9.1756
1.9999,-0.1404,-0.0571,32.6412,-21.8855,-12.7023
1.9999,-0.1426,-0.0642,32.374,-19.229,-16.7939
1.9999,-0.1411,-0.0786,31.9924,-16.8702,-21.3435
1.9999,-0.1479,-0.061,31.5573,-15.1527,-25.6412
1.9999,-0.1443,-0.0317,31.1069,-13.3435,-30.9771
1.9999,-0.1357,-0.0159,30.542,-12.4275,-36.0534
1.9999,-0.1365,-0.0154,29.9695,-11.9542,-41.1832
1.9999,-0.1387,-0.002,29.5954,-11.9542,-46.7863
1.9999,-0.136,0.0032,29.1908,-12.771,-52.313
1.9999,-0.1372,0.0,28.6412,-14.084,-57.5954
1.9999,-0.1382,-0.0039,28.0611,-15.5191,-63.0611
1.9999,-0.1362,-0.0298,27.6794,-17.3435,-68.7557
1.9999,-0.1387,-0.0222,27.3511,-19.5496,-74.4427
1.9999,-0.1318,-0.01,27.0153,-22.0611,-79.7252
1.9999,-0.1365,0.0002,26.5725,-24.9695,-84.8168
1.9999,-0.1313,0.0129,26.3511,-28.5496,-89.0458
1.9999,-0.1284,0.0127,25.771,-32.0687,-93.7863
1.9999,-0.1326,0.0217,25.1679,-35.7328,-97.1756
1.9999,-0.127,0.021,24.687,-39.5344,-100.5115
1.9999,-0.126,0.0024,24.0382,-43.4351,-103.6183
1.9999,-0.1194,-0.021,23.5191,-47.1069,-106.2595
1.9999,-0.1211,-0.0181,22.9847,-50.4427,-108.4198
1.9999,-0.1248,-0.0217,22.3817,-53.5878,-110.0916
1.9999,-0.126,-0.0159,21.8855,-56.2519,-111.7176
1.9999,-0.1223,-0.0173,21.3588,-58.6183,-112.7252
1.9912,-0.126,-0.0227,21.0076,-60.6412,-113.7099
1.9814,-0.1353,-0.0127,20.6641,-62.0382,-115.0763
1.9629,-0.1365,-0.019,20.4198,-63.2672,-116.3511
1.9617,-0.1318,-0.0183,20.2672,-64.5496,-117.7863
1.9744,-0.1277,-0.0432,20.3359,-65.7939,-119.2672
1.9697,-0.134,-0.0437,20.313,-67.1069,-121.0687
1.9539,-0.1353,-0.0361,20.5191,-68.2519,-123.145
1.9583,-0.1411,-0.031,20.8473,-69.1298,-125.5038
1.9558,-0.1365,-0.0317,21.3969,-69.9237,-128.0305
1.9478,-0.1458,-0.0356,22.0458,-70.5496,-130.626
1.9473,-0.1565,-0.0457,22.8779,-70.8015,-133.4504
1.9409,-0.1548,-0.0571,23.2977,-70.6489,-136.4886
1.9409,-0.1509,-0.0637,23.7557,-70.3969,-139.6412
1.9375,-0.1611,-0.0791,24.1985,-69.8473,-143.0229
1.9207,-0.1582,-0.0911,24.8244,-69.1985,-146.542
1.9084,-0.1548,-0.1079,25.1221,-68.3282,-150.2824
1.8926,-0.1553,-0.1121,25.0153,-67.3511,-154.0229
1.8679,-0.1538,-0.1138,25.3206,-66.5191,-158.0611
1.8423,-0.1545,-0.116,24.9237,-64.8779,-162.7176
1.8218,-0.1465,-0.1345,24.9618,-63.2977,-166.3893
1.7876,-0.1367,-0.1475,24.7252,-61.3893,-170.2672
1.7639,-0.1277,-0.1543,24.2748,-59.2366,-173.9008
1.7339,-0.1174,-0.1626,23.9237,-57.0534,-177.3206
1.6948,-0.1099,-0.1582,23.2519,-55.0,-181.1908
1.6553,-0.1016,-0.1538,22.6794,-53.5496,-184.5878
1.6362,-0.0935,-0.1528,21.8626,-52.2061,-187.771
1.594,-0.0894,-0.1365,21.1221,-51.2519,-190.7405
1.5547,-0.074,-0.135,20.4656,-50.6641,-193.3435
1.5195,-0.0708,-0.1284,19.687,-50.313,-196.0763
1.4688,-0.0671,-0.1201,19.0992,-50.0458,-198.2672
1.4363,-0.0662,-0.1091,18.3359,-49.9466,-200.5267
1.4026,-0.0601,-0.1091,17.5878,-50.1374,-202.5725
1.3765,-0.0566,-0.1113,17.0458,-51.0076,-204.2443
1.3745,-0.0574,-0.126,16.6641,-52.0305,-205.6183
1.3491,-0.0586,-0.1321,16.0458,-52.7939,-206.8931
1.3301,-0.0554,-0.1228,15.6489,-53.6031,-208.0458
1.3254,-0.0488,-0.1377,15.0229,-54.3511,-209.3206
1.3091,-0.0508,-0.1409,14.3511,-54.855,-211.0763
1.3032,-0.0356,-0.1519,13.4504,-55.0763,-212.7634
1.2969,-0.0444,-0.1531,12.374,-55.3435,-215.2672
1.2966,-0.0361,-0.1531,11.1756,-56.1374,-218.0611
1.2866,-0.0344,-0.1504,9.9084,-56.4198,-221.2137
1.2839,-0.0356,-0.137,8.2519,-57.3359,-224.7176
1.2703,-0.0442,-0.1282,6.5496,-58.5573,-228.7252
1.2644,-0.041,-0.1304,5.2214,-59.9008,-233.3053
1.2627,-0.0464,-0.1282,3.4809,-61.4427,-238.0076
1.2461,-0.0591,-0.1306,2.0763,-63.2824,-243.3206
1.2405,-0.0598,-0.1343,0.6641,-64.2214,-248.1756
1.2349,-0.0696,-0.1355,-0.6718,-64.6336,-250.1374
1.2131,-0.0762,-0.1262,-1.8321,-65.1756,-250.1374
1.2085,-0.0684,-0.126,-2.9695,-65.6565,-250.1374
1.1904,-0.0725,-0.1311,-4.0,-65.2443,-250.1374
1.1592,-0.0769,-0.1274,-4.8015,-65.1908,-250.1374
1.1245,-0.0864,-0.1226,-5.2748,-65.4275,-250.1374
1.0933,-0.0889,-0.1111,-6.0,-65.0687,-250.1374
1.0415,-0.1003,-0.1099,-6.3053,-65.0076,-250.1374
0.99,-0.1113,-0.1028,-6.1679,-65.145,-250.1374
0.9294,-0.1221,-0.1204,-6.0763,-65.3511,-250.1374
0.8916,-0.1199,-0.1223,-5.9847,-64.4809,-250.1374
0.8198,-0.1226,-0.1221,-5.1908,-63.3053,-250.1374
0.7471,-0.1147,-0.1365,-4.3817,-62.0229,-250.1374
0.6726,-0.1157,-0.1321,-3.7252,-61.1603,-250.1374
0.5918,-0.106,-0.1414,-2.9008,-60.2901,-250.1374
0.5154,-0.095,-0.147,-2.0305,-59.5802,-250.1374
0.4197,-0.0989,-0.1626,-1.0153,-58.6794,-250.1374
0.3096,-0.0952,-0.1799,0.2214,-57.5267,-250.1374
0.1973,-0.0813,-0.2114,1.542,-55.6107,-250.1374
0.1375,-0.082,-0.2229,3.3893,-52.7405,-250.1374
0.0229,-0.0889,-0.2612,5.3969,-49.374,-250.1374
-0.1006,-0.0979,-0.2847,7.7634,-45.8855,-250.1374
-0.207,-0.093,-0.3037,9.8626,-42.626,-250.1374
-0.3042,-0.0776,-0.3135,11.7405,-39.4046,-250.1374
-0.397,-0.0549,-0.3062,13.6107,-36.4733,-250.1374
-0.4861,-0.0325,-0.3,14.8473,-34.9542,-250.1374
-0.5674,0.0117,-0.3228,15.9695,-33.9695,-250.1374
-0.6431,0.0813,-0.3054,16.2595,-33.9313,-250.1374
-0.6865,0.1157,-0.2969,16.3893,-35.0382,-250.1374
-0.7388,0.1379,-0.2996,16.1527,-35.6641,-250.1374
-0.7903,0.1562,-0.3008,15.855,-36.3206,-250.1374
-0.7834,0.1831,-0.3267,15.6947,-37.6031,-250.1374
-0.8162,0.2371,-0.3147,15.8626,-40.6412,-248.3512
-0.8398,0.2717,-0.2949,15.8931,-45.1832,-233.313
-0.8643,0.3203,-0.2825,15.8015,-50.687,-218.0229
-0.8738,0.3457,-0.2791,15.6947,-56.6107,-202.2443
-0.863,0.3601,-0.291,15.4504,-62.7786,-186.7634
-0.8757,0.3857,-0.3035,15.3588,-68.7557,-171.1603
-0.8726,0.406,-0.3198,15.2061,-74.6947,-155.8397
-0.8557,0.4194,-0.3455,14.687,-79.8244,-140.7863
-0.8459,0.416,-0.3577,13.8779,-84.4504,-126.542
-0.8113,0.3975,-0.4011,12.9771,-87.4809,-113.2519
-0.77,0.365,-0.45,11.2672,-88.8779,-100.8473
-0.7214,0.3477,-0.4775,9.2977,-89.6412,-89.3588
-0.6597,0.3413,-0.5139,7.3206,-88.8702,-79.4046
-0.5894,0.3357,-0.5381,5.1069,-87.4046,-69.3359
-0.5334,0.3274,-0.5503,2.9771,-85.2519,-61.6718
-0.502,0.3345,-0.5527,0.7099,-82.3359,-55.2443
-0.4285,0.3479,-0.5718,-1.8702,-77.9542,-48.9237
-0.3652,0.3525,-0.5986,-4.4656,-72.8168,-44.0305
-0.2944,0.3579,-0.6157,-7.1908,-66.6489,-40.0534
-0.2344,0.3606,-0.6101,-9.8626,-59.7252,-36.9618
-0.1826,0.3545,-0.6001,-12.8626,-53.2443,-35.0763
-0.1321,0.3406,-0.5901,-15.8473,-46.7099,-34.1527
-0.0884,0.322,-0.5681,-18.8779,-40.7557,-34.2824
-0.0544,0.3066,-0.5376,-21.916,-35.3893,-35.145
-0.0344,0.3,-0.5244,-24.7786,-30.2061,-36.7405
0.0088,0.2974,-0.499,-27.3435,-25.3511,-38.9313
0.0403,0.2864,-0.4802,-29.5573,-20.9313,-41.7481
0.0649,0.2708,-0.449,-31.6718,-17.0229,-44.8473
0.0869,0.2571,-0.4248,-33.2901,-13.0687,-48.2901
0.0994,0.25,-0.3977,-34.5191,-9.6718,-51.9924
0.1082,0.2346,-0.3645,-35.4656,-6.8473,-55.7786
0.1152,0.2271,-0.3442,-35.6794,-4.0992,-59.6031
0.1089,0.2183,-0.3174,-35.6641,-1.6412,-63.2748
0.1145,0.2029,-0.2944,-35.2519,0.313,-66.7176
0.1223,0.187,-0.281,-34.6565,2.3664,-70.1221
0.1147,0.178,-0.2566,-33.5267,3.9237,-73.5038
0.1094,0.1692,-0.2368,-32.458,5.2366,-76.5267
0.0969,0.1582,-0.2253,-31.0305,6.542,-79.3282
0.095,0.1484,-0.2095,-29.4656,7.4351,-82.2061
0.0825,0.1321,-0.2056,-27.7252,8.0534,-84.5649
0.0681,0.126,-0.1946,-25.9542,8.5267,-86.7939
0.0559,0.1267,-0.1826,-24.1145,8.9466,-88.6412
0.0386,0.1228,-0.1587,-22.2137,9.2519,-90.2824
0.021,0.1018,-0.146,-20.3893,9.1603,-91.3435
0.0005,0.1084,-0.1484,-18.542,9.1527,-93.2214
-0.0193,0.0994,-0.1545,-16.4809,9.2137,-93.8015
-0.0386,0.0977,-0.1604,-14.5649,9.7328,-94.2214
-0.064,0.0957,-0.1697,-12.458,10.9924,-94.4504
-0.1016,0.104,-0.186,-9.7863,13.4962,-94.7099
-0.1489,0.0947,-0.2102,-7.6183,16.3511,-94.6183
-0.2002,0.1016,-0.2263,-5.1679,19.8473,-94.5343
-0.272,0.1057,-0.2385,-2.3969,23.0305,-94.0458
-0.3083,0.1118,-0.2542,0.084,25.8321,-93.5343
-0.3811,0.1165,-0.27,2.4122,27.9313,-92.9313
-0.4546,0.1345,-0.2812,4.8092,29.458,-90.458
-0.5232,0.1423,-0.3062,6.7939,30.5802,-87.0611
-0.5911,0.1523,-0.3223,8.3435,31.6107,-82.9237
-0.6487,0.1592,-0.3394,9.4733,32.1298,-77.1985
-0.6946,0.1755,-0.3569,9.9771,31.855,-70.0763
-0.7471,0.187,-0.373,9.7786,31.374,-61.7557
-0.7642,0.1846,-0.3757,9.3817,30.2748,-52.7176
-0.793,0.1995,-0.3838,8.1374,28.8626,-42.2137
-0.8169,0.2166,-0.3906,6.6947,27.4122,-30.771
-0.8245,0.2483,-0.3982,4.8244,26.1679,-18.687
-0.8289,0.2559,-0.4084,2.542,24.9237,-5.7176
-0.8391,0.2549,-0.4136,0.2519,23.7023,7.3435
-0.8337,0.2649,-0.4114,-2.3206,22.9847,21.5573
-0.8237,0.2876,-0.4031,-4.6031,22.5496,34.6641
-0.8176,0.2932,-0.3989,-6.7176,22.4351,47.3588
-0.7913,0.3003,-0.3882,-9.0611,22.7176,61.2977
-0.7764,0.3132,-0.3789,-10.771,23.0,73.7023
-0.7432,0.3018,-0.3784,-12.5267,23.7863,85.5725
-0.708,0.2925,-0.3696,-13.8168,24.4886,96.855
-0.6638,0.2761,-0.3535,-15.0153,25.2061,107.3664
-0.6147,0.2537,-0.3508,-16.1527,26.145,116.9008
-0.5642,0.2292,-0.3396,-16.855,27.084,125.2595
-0.5054,0.2153,-0.3367,-17.1832,28.0076,133.1145
-0.4749,0.2141,-0.344,-17.4427,28.8702,140.2901
-0.4268,0.2168,-0.3398,-17.6412,30.1832,146.5496
-0.3625,0.2192,-0.3269,-17.687,31.8473,152.2061
-0.3086,0.2217,-0.3188,-18.0153,33.4962,157.2061
-0.2583,0.2231,-0.3123,-17.9618,35.1985,161.5038
-0.2021,0.2339,-0.3076,-18.0992,37.1221,164.9924
-0.1487,0.2388,-0.2908,-18.2977,38.9237,167.9618
-0.1003,0.2297,-0.2971,-18.3817,40.7939,170.4046
-0.0852,0.2209,-0.2942,-18.6412,43.1069,171.6718
-0.0366,0.2153,-0.2913,-18.6718,45.1679,172.6641
-0.0012,0.2087,-0.2671,-18.9847,46.9695,173.1145
0.0425,0.2056,-0.2693,-18.8855,48.6412,172.9924
0.0591,0.2017,-0.2568,-18.7023,49.8092,172.3282
0.0835,0.2026,-0.2378,-18.5267,50.8702,171.0153
0.1072,0.2075,-0.2314,-18.0534,50.8702,169.7634
0.124,0.2029,-0.2151,-17.7481,50.6107,168.0382
0.127,0.2097,-0.2048,-17.3053,50.084,166.5878
0.1372,0.2202,-0.1887,-16.8321,48.9618,165.0458
0.1541,0.2187,-0.1724,-16.3893,47.7023,163.9008
0.1572,0.2268,-0.168,-15.855,46.229,162.7176
0.1724,0.2324,-0.1672,-15.4198,44.5878,162.3282
0.1887,0.2375,-0.1575,-14.6794,42.8473,161.9389
0.1929,0.2361,-0.1538,-14.2137,41.1679,162.2137
0.2134,0.2351,-0.1602,-13.6489,39.1756,162.6412
0.2275,0.2373,-0.1665,-12.8702,36.6489,163.4351
0.238,0.2327,-0.1594,-12.0611,35.1069,164.626
0.25,0.229,-0.175,-11.2214,33.6489,166.0076
0.2661,0.2305,-0.1736,-10.5191,32.6107,167.542
0.2837,0.231,-0.1826,-9.8473,31.4733,168.9389
0.3064,0.2341,-0.1968,-9.1985,30.8473,170.6947
0.3171,0.2295,-0.2048,-8.7405,30.6947,172.5114
0.3142,0.2322,-0.2068,-8.1985,30.916,174.145
0.3345,0.228,-0.2246,-7.7023,31.6489,175.6336
0.3533,0.231,-0.2227,-7.4351,32.1908,177.542
0.3684,0.2314,-0.2322,-7.1679,33.2595,179.542
0.3867,0.2334,-0.2429,-6.9237,34.6641,181.4351
0.4009,0.2278,-0.251,-6.9771,36.3435,183.1908
0.4155,0.2361,-0.2561,-6.9008,37.9618,185.1527
0.426,0.2371,-0.2588,-7.0687,39.5115,187.1832
0.4287,0.2395,-0.2485,-7.1756,41.1832,189.0916
0.4248,0.2332,-0.2393,-7.4198,42.8473,191.0992
0.4333,0.2344,-0.2515,-7.7328,44.313,193.3282
0.4329,0.2271,-0.2502,-8.0992,45.7481,195.6336
0.4436,0.2341,-0.25,-8.8702,47.0229,197.8931
0.4448,0.2224,-0.2522,-9.5191,47.9084,200.5343
0.4524,0.2227,-0.2454,-10.4962,48.4885,203.3053
0.46,0.2119,-0.2358,-11.5267,49.0458,206.2748
0.4658,0.21,-0.2212,-12.6641,49.7939,209.6794
0.4819,0.2036,-0.2161,-14.1603,49.8244,213.1374
0.5076,0.2021,-0.2021,-15.3664,50.1374,216.7634
0.5298,0.207,-0.1914,-16.8168,50.855,220.4427
0.5515,0.1951,-0.1758,-18.1069,51.6107,224.0992
0.5908,0.2,-0.1458,-19.2519,51.771,227.7634
0.6138,0.198,-0.1531,-20.3053,51.687,231.0611
0.6487,0.1785,-0.1431,-21.1069,52.0305,234.0916
0.6902,0.1587,-0.1318,-21.9847,51.9466,236.7328
0.7046,0.1531,-0.1167,-22.6107,51.7481,239.0382
0.74,0.1333,-0.0981,-23.0458,51.6412,240.8168
0.7844,0.1187,-0.1064,-23.5267,51.2672,242.0992
0.8308,0.1069,-0.0969,-24.0229,50.6107,242.9237
0.8738,0.0906,-0.0969,-24.2672,49.8855,243.1069
0.9063,0.071,-0.0916,-24.3969,49.2672,242.8702
0.9448,0.0757,-0.0796,-24.6183,48.6489,241.9847
0.9883,0.0669,-0.0798,-24.3664,47.6794,240.3359
1.0134,0.0693,-0.0781,-24.2824,46.1603,238.9924
1.0325,0.0537,-0.064,-24.0229,44.3511,236.7328
1.0613,0.0503,-0.0398,-23.9389,42.2595,234.313
1.092,0.0359,-0.0339,-23.4046,40.0229,231.4122
1.1162,0.0286,-0.0347,-23.1298,37.8015,228.5343
1.1306,0.0247,-0.0237,-22.7786,34.9847,225.5038
1.1514,0.0176,-0.0459,-22.5954,32.9389,222.3588
1.1809,0.0227,-0.0391,-22.3435,30.3282,219.8702
1.2009,0.0286,-0.0432,-21.7023,28.0458,217.9618
1.2021,0.0164,-0.0347,-21.0153,25.5725,216.5038
1.2253,0.0244,-0.0247,-19.8321,22.771,215.7481
1.2422,0.0273,0.0002,-18.6183,19.9237,215.5802
1.2793,0.0354,0.0054,-17.084,18.0076,216.229
1.3015,0.0391,-0.0034,-15.9466,16.771,217.2824
1.3384,0.0354,0.012,-14.6947,16.1832,218.8015
1.3833,0.031,0.0037,-13.458,15.626,220.3664
1.427,0.0107,0.001,-12.8855,15.1603,221.4275
1.4656,0.0083,-0.0017,-12.2366,15.0916,221.8321
1.5166,0.0039,-0.0073,-11.6641,15.229,221.8168
1.5618,-0.0054,-0.0146,-11.0916,16.0916,220.855
1.5981,-0.01,-0.0029,-10.3435,16.9542,219.9008
1.6094,-0.0039,0.0044,-9.6641,17.9618,218.0687
1.6563,-0.0132,0.0017,-8.6489,20.0687,216.0382
1.6943,-0.0266,-0.0022,-7.4427,22.6031,214.2824
1.7275,-0.0356,-0.0044,-6.1832,25.6794,212.0076
1.7659,-0.0376,-0.0061,-4.9695,29.313,210.1603
1.7917,-0.0461,-0.0159,-3.2595,34.1832,208.7557
1.8267,-0.0505,-0.0259,-2.0153,39.5496,207.7328
1.8467,-0.0496,-0.0044,-0.7176,44.1527,206.542
1.8452,-0.0625,-0.0083,0.4809,48.1832,205.3282
1.8726,-0.0767,-0.0066,1.5725,51.8321,204.1069
1.8931,-0.0869,-0.0085,2.6641,55.0305,202.2443
1.9119,-0.1147,0.0173,3.5802,57.4275,199.9084
1.9294,-0.1206,0.0137,4.5344,59.4198,197.3893
1.9414,-0.1201,-0.0007,5.2595,61.6794,193.7557
1.9702,-0.125,-0.002,5.9389,64.1527,190.0534
1.9841,-0.1304,-0.0129,6.5115,66.3206,185.9542
1.9973,-0.124,-0.0024,6.8244,68.5267,181.4657
1.9999,-0.1162,-0.0056,6.9237,70.229,176.5343
1.9999,-0.1033,0.0049,7.0611,71.084,171.7481
1.9999,-0.0913,0.0125,6.7863,71.7481,166.9695
1.9999,-0.0779,0.0176,6.2366,71.9924,162.0763
1.9999,-0.0669,0.0305,5.5878,71.3282,157.3664
1.9999,-0.0557,0.0327,5.0458,70.4809,152.6641
1.9999,-0.0493,0.0459,4.0,68.687,147.855
1.9999,-0.0396,0.0571,3.1145,66.0305,143.1527
1.9999,-0.0305,0.0642,2.1527,62.8015,138.7099
1.9999,-0.0232,0.0706,1.0,58.7634,134.3817
1.9999,-0.0186,0.0747,0.2214,54.5649,130.1221
1.9999,-0.01,0.0852,-0.7252,49.9542,125.7176
1.9999,-0.0068,0.083,-1.7481,45.084,121.7939
1.9999,-0.0059,0.0813,-2.4733,40.4275,117.3588
1.9999,-0.0051,0.0691,-3.2901,35.9084,113.5191
1.9999,-0.0063,0.0647,-4.0916,31.2443,109.7023
1.9999,-0.0085,0.073,-4.7252,26.5878,105.7099
1.9999,-0.0071,0.0713,-5.2366,21.8015,102.9008
1.9999,-0.0005,0.072,-5.7786,17.1603,99.9924
1.9999,0.0054,0.0754,-6.0916,12.4885,96.6718
1.9999,0.0083,0.0745,-6.5725,8.7328,94.374
1.9999,0.0127,0.0701,-7.0305,5.458,92.0763
1.9999,0.0059,0.0627,-7.5344,2.6641,90.084
1.9999,0.0083,0.0588,-7.7863,0.4504,87.8779
1.9999,-0.0007,0.0598,-8.2137,-0.8779,85.6489
1.9999,0.0005,0.061,-8.3206,-2.0534,83.3969
1.9999,0.0022,0.0686,-8.2901,-3.1069,81.3893
1.9999,-0.0007,0.0649,-8.3435,-3.542,79.2443
1.9999,-0.001,0.0649,-7.6947,-3.2595,76.7405
1.9999,-0.0081,0.0579,-7.3053,-2.0687,73.9847
1.9999,-0.02,0.0596,-6.5267,-0.4504,71.3664
1.9999,-0.0259,0.0801,-5.458,0.6565,68.4198
1.9999,-0.0405,0.0762,-4.2214,2.6336,65.2061
1.9999,-0.0413,0.0701,-2.8626,4.458,62.1679
1.9999,-0.0518,0.0674,-0.9542,6.3282,59.0916
1.9999,-0.0479,0.0742,0.8931,8.0382,55.3817
1.9999,-0.0549,0.0781,2.8168,9.1985,52.229
1.9999,-0.0596,0.0781,4.6183,10.5191,49.0229
1.9999,-0.0588,0.0671,7.0382,12.2366,44.6107
1.9999,-0.061,0.0696,8.7634,13.6718,41.0
1.9999,-0.0591,0.0542,10.3588,14.9084,37.3817
1.9999,-0.0603,0.0364,11.9771,16.5267,33.4351
1.9999,-0.0591,0.0322,13.4427,18.1985,29.6107
1.9999,-0.0613,0.0146,14.7405,19.7023,25.5954
1.9999,-0.053,0.0151,15.771,21.0,21.3817
1.9999,-0.0557,0.0081,17.0305,21.9924,17.1527
1.9999,-0.0466,-0.0007,17.9695,22.5649,13.5725
1.9999,-0.0425,-0.009,18.7634,22.4733,9.9084
1.9999,-0.0378,-0.0173,19.458,22.2672,6.542
1.9924,-0.0405,-0.0215,20.229,21.7481,4.145
1.9463,-0.0332,-0.0388,20.6718,21.0382,1.8779
1.9106,-0.0334,-0.0583,20.9695,20.0305,0.1527
1.8704,-0.0266,-0.0554,21.2366,19.2366,-1.6031
1.8547,-0.0276,-0.0649,21.3817,18.1145,-2.6183
1.8179,-0.0166,-0.075,21.3817,16.9008,-3.8473
1.7825,-0.0107,-0.0815,21.313,15.5115,-4.4656
1.7524,-0.009,-0.1016,21.0229,14.3511,-5.2137
1.7246,-0.0039,-0.114,20.7481,12.8931,-5.6031
1.699,-0.0044,-0.1206,20.0305,11.4122,-6.0458
1.6672,0.0007,-0.1423,19.2672,9.5191,-6.1527
1.6482,0.0088,-0.147,18.2137,7.4427,-6.3588
1.6267,0.0098,-0.155,16.8931,5.1221,-6.626
1.6165,0.0024,-0.1626,15.3359,2.7252,-7.2137
1.6018,0.0056,-0.1724,13.5191,-0.145,-7.8779
1.5972,0.0024,-0.1682,11.5115,-2.6412,-8.687
1.5869,0.0066,-0.177,9.458,-5.1527,-9.9008
1.571,-0.0024,-0.1814,7.542,-7.5573,-11.084
1.5596,-0.0071,-0.1882,5.3053,-9.916,-12.7481
1.5437,-0.0068,-0.1833,3.313,-12.0763,-14.5878
1.5295,-0.0154,-0.1833,1.2824,-14.6031,-16.4427
1.5168,-0.0208,-0.1694,-0.8015,-17.1679,-18.3282
1.5063,-0.0286,-0.1721,-2.6641,-19.9924,-20.458
1.4978,-0.0339,-0.1619,-4.8702,-23.2977,-22.7939
1.4717,-0.0376,-0.1509,-6.9618,-26.4733,-25.3817
1.4631,-0.0439,-0.1506,-8.5573,-29.7481,-27.6031
1.4426,-0.0452,-0.134,-10.4885,-32.9618,-29.6107
1.4265,-0.0474,-0.1365,-12.0153,-35.8779,-31.7863
1.4104,-0.052,-0.1221,-13.7557,-38.2901,-33.855
1.4058,-0.0581,-0.113,-15.2824,-40.2824,-35.8473
1.397,-0.0544,-0.1038,-16.5344,-42.0076,-37.6489
1.3821,-0.061,-0.1069,-18.0153,-43.6336,-39.8168
1.3577,-0.0627,-0.0974,-19.2519,-44.374,-41.3359
1.3447,-0.0649,-0.085,-20.3893,-44.8702,-43.2748
1.3298,-0.0754,-0.064,-21.2977,-45.5573,-45.313
1.3196,-0.083,-0.0559,-22.0076,-45.6412,-46.8397
1.3015,-0.0786,-0.0359,-22.4046,-45.4809,-48.2595
1.2808,-0.0876,-0.0166,-22.5649,-44.9466,-50.0992
1.2639,-0.0881,-0.0034,-22.6107,-44.0687,-51.3969
1.2471,-0.0981,0.0112,-22.0687,-42.4427,-52.4656
1.2383,-0.0962,0.022,-21.4122,-40.5267,-53.3664
1.2273,-0.0859,0.04,-20.5114,-38.1298,-54.0153
1.2024,-0.1038,0.0547,-19.1679,-35.3206,-54.5115
1.1882,-0.1025,0.0479,-17.916,-32.3664,-54.6641
1.1658,-0.1082,0.0667,-16.1756,-28.8779,-54.5649
1.146,-0.1086,0.0798,-14.1374,-25.3435,-54.6183
1.1194,-0.1028,0.0835,-11.8397,-21.8321,-54.5802
1.1116,-0.1006,0.0906,-9.8015,-18.1832,-54.5496
1.0698,-0.1001,0.0969,-7.0153,-14.1527,-54.084
1.0437,-0.0979,0.0889,-4.1985,-10.6718,-54.2595
1.0112,-0.0962,0.0974,-1.3893,-7.5954,-53.5649
0.9709,-0.1008,0.103,1.5802,-4.5649,-52.8092
0.9319,-0.0876,0.0994,4.4198,-1.6718,-51.9847
0.8936,-0.0784,0.0994,7.0076,0.3817,-50.8168
0.865,-0.0671,0.0945,9.7023,2.2748,-48.8015
0.8308,-0.0552,0.0962,12.1985,3.7634,-46.8473
0.8157,-0.0508,0.0894,14.3817,4.2519,-44.4885
0.7859,-0.0432,0.0974,16.3588,4.7481,-41.6718
0.7605,-0.0317,0.0767,18.1527,4.6031,-38.6565
0.7427,-0.0205,0.0679,19.855,4.145,-35.4962
0.729,-0.0098,0.0557,21.2595,3.9924,-32.1298
0.7251,0.0051,0.0449,22.5267,3.2595,-28.5649
0.7158,0.0068,0.0337,23.4504,2.5496,-25.0611
0.7104,0.0073,0.0073,24.1374,2.1985,-21.7863
0.7136,0.0068,-0.0066,24.542,2.2137,-18.8244
0.7205,0.0217,-0.0127,25.0992,2.1908,-15.8702
0.7175,0.0251,-0.0315,25.3206,2.2977,-13.4504
0.7231,0.0256,-0.0422,25.3359,2.2595,-10.9924
0.7227,0.0264,-0.0603,25.1603,1.542,-9.2901
0.7351,0.0293,-0.0557,25.1145,0.6947,-7.2977
0.7434,0.0293,-0.0789,24.5496,-0.0153,-5.5649
0.7559,0.0381,-0.0808,24.1069,-0.7481,-3.916
0.7639,0.0459,-0.0889,23.5954,-1.313,-2.5649
0.7788,0.0466,-0.0908,22.5267,-1.7023,-1.229
0.8052,0.052,-0.0964,21.7557,-2.374,0.0076
0.8145,0.0503,-0.1013,20.9542,-2.7023,0.5496
0.8352,0.0562,-0.115,19.8779,-2.8931,1.2977
0.8481,0.051,-0.1157,19.1069,-3.5344,1.4198
0.8713,0.0537,-0.1089,18.0,-4.1603,1.8626
0.8875,0.0562,-0.1174,17.0305,-4.6412,1.6183
0.9067,0.0618,-0.1138,16.084,-5.4885,1.3588
0.9128,0.0618,-0.1257,15.0,-6.1985,0.7176
0.9355,0.0544,-0.1194,14.1527,-6.8855,-0.0611
0.9456,0.0569,-0.124,13.4504,-7.3206,-1.3511
0.9663,0.0605,-0.1196,12.6718,-7.6336,-2.2672
0.9731,0.0605,-0.1279,11.9771,-7.9695,-3.7863
0.9873,0.0615,-0.1245,11.1374,-7.8931,-5.3435
0.9941,0.0608,-0.1216,10.1679,-8.145,-6.8168
1.001,0.0652,-0.1289,9.5038,-8.2595,-8.5496
1.0022,0.0684,-0.1348,8.916,-8.1298,-10.6718
1.002,0.0706,-0.1228,8.2901,-8.2901,-11.855
1.0029,0.0745,-0.1292,7.7023,-8.0992,-13.5725
0.9966,0.0798,-0.125,7.2443,-7.7634,-14.8244
0.9919,0.0803,-0.1257,6.8168,-7.6489,-15.6489
0.9861,0.0818,-0.125,6.2748,-7.3206,-16.6107
0.9907,0.0791,-0.1304,6.1069,-6.3893,-17.0687
0.9749,0.0811,-0.134,6.0229,-5.6947,-17.0076
0.968,0.0679,-0.1321,5.7939,-4.6794,-17.5573
0.9634,0.0759,-0.1384,5.8397,-3.3588,-17.1679
0.9509,0.0649,-0.1389,5.9924,-2.1527,-16.771
0.9407,0.0703,-0.1404,6.2977,-0.7786,-16.2519
0.9365,0.0698,-0.1401,6.7328,0.5038,-15.9008
0.928,0.0752,-0.1328,7.0763,1.7405,-15.0
0.9202,0.0735,-0.1289,7.5191,2.8931,-13.855
0.9216,0.0771,-0.1292,7.855,4.2977,-12.7939
0.9138,0.073,-0.1409,8.2977,5.5115,-11.4809
0.9055,0.0808,-0.1504,8.6794,7.0458,-10.0382
0.8918,0.0854,-0.1443,8.9084,8.6489,-9.0916
0.8831,0.0762,-0.1484,9.1908,9.9924,-7.687
0.8789,0.0701,-0.1497,9.4046,10.9008,-6.4275
0.866,0.0703,-0.1577,9.6107,11.5573,-5.3511
0.8572,0.0681,-0.1438,9.7634,11.7786,-4.1221
0.8513,0.0791,-0.1409,10.0076,11.687,-2.5573
0.8403,0.0781,-0.1399,10.145,11.6641,-0.916
0.8342,0.0833,-0.1392,10.3359,11.1985,0.229
0.833,0.0789,-0.1433,10.2061,10.2977,2.0305
0.8367,0.0737,-0.1455,10.2672,9.6947,3.8702
0.8291,0.0715,-0.1221,10.2824,8.9924,5.5038
0.834,0.0698,-0.1313,10.1908,8.1603,7.2901
0.8384,0.0803,-0.1304,10.0076,7.2672,8.8473
0.8486,0.0835,-0.1262,10.0458,6.6412,10.5878
0.8606,0.0776,-0.1328,9.9313,5.5725,12.2366
0.8684,0.0781,-0.1125,9.8702,4.7099,13.5191
0.8909,0.0742,-0.1118,9.6031,3.6031,14.7634
0.8965,0.0789,-0.0996,9.4656,2.1985,15.5115
0.9131,0.0728,-0.1062,9.1756,1.0611,16.3206
0.9246,0.0764,-0.0979,8.9695,-0.5344,16.5954
0.9407,0.0735,-0.0928,8.7405,-2.0611,16.6947
0.9495,0.0676,-0.0989,8.4198,-3.7557,16.8702
0.9727,0.0732,-0.0962,8.2901,-5.5115,16.3206
0.9827,0.0703,-0.0859,7.9084,-6.8092,15.8244
0.9963,0.0706,-0.0916,7.771,-8.4122,15.1679
1.0129,0.073,-0.0913,7.2214,-9.5573,14.4733
1.0244,0.0732,-0.1016,7.2137,-10.4122,13.7023
1.0427,0.0701,-0.105,6.8931,-11.229,12.5802
1.053,0.0745,-0.1096,6.5954,-11.2443,11.4962
1.0667,0.0642,-0.1069,6.2672,-11.6794,10.8702
1.0581,0.0684,-0.0972,6.0611,-12.3893,10.0763
1.0698,0.0747,-0.1042,6.1298,-13.1679,8.9237
1.0764,0.0767,-0.0991,5.7863,-14.0458,8.374
1.0859,0.0808,-0.1001,5.4656,-15.084,7.374
1.0913,0.0823,-0.1072,5.2595,-15.3206,6.4198
1.0991,0.0742,-0.1125,4.9237,-15.1221,5.626
1.1042,0.073,-0.1187,4.4504,-14.5725,5.0687
1.1162,0.0706,-0.1423,4.0,-13.3053,4.2214
1.1389,0.0647,-0.1313,3.8321,-12.1679,4.084
1.1318,0.0684,-0.1389,3.5573,-11.0153,3.374
1.1348,0.0674,-0.1375,3.3969,-9.2977,3.229
1.1353,0.0583,-0.1394,3.4122,-7.4046,2.9771
1.1387,0.0642,-0.1523,3.626,-5.5267,2.3893
1.1338,0.0627,-0.1404,3.5725,-3.2366,2.2595
1.126,0.0544,-0.1521,3.9237,-1.2443,1.9542
1.1289,0.0535,-0.1428,3.9847,0.626,1.3969
1.1223,0.0403,-0.1462,4.5649,2.0992,1.1985
1.1223,0.0432,-0.1384,4.855,3.6412,0.8015
1.1052,0.04,-0.1428,5.1679,4.7863,0.6947
1.1021,0.0369,-0.1328,5.458,5.4275,0.4198
1.085,0.0393,-0.1306,6.1527,5.9084,0.4962
1.0769,0.0339,-0.1233,6.3359,5.771,0.3435
1.061,0.0312,-0.124,6.5344,5.6336,0.2748
1.0532,0.0442,-0.1252,6.7176,5.084,0.8168
1.0496,0.0457,-0.1333,6.9466,4.2901,0.7557
1.0352,0.0349,-0.1416,6.7634,3.4427,0.771
1.0317,0.0403,-0.1331,6.6107,2.6565,1.3435
1.0217,0.0427,-0.1443,6.5649,1.458,1.5954
1.0188,0.0403,-0.1484,6.4504,0.7252,1.9847
1.0088,0.0437,-0.1487,6.0076,-0.374,2.6336
1.0139,0.0481,-0.1548,5.2748,-1.2824,3.2977
1.0146,0.0469,-0.1494,4.9695,-2.0687,4.1374
1.0181,0.051,-0.1489,4.5878,-2.8015,4.8626
1.0178,0.0549,-0.1353,4.1298,-3.4809,5.6107
1.0227,0.0571,-0.1448,3.8092,-3.9924,6.3893
1.0254,0.051,-0.1453,3.2443,-4.1756,6.9542
1.0342,0.0513,-0.1399,3.0153,-4.7252,7.7557
1.0481,0.0505,-0.1306,2.8244,-4.9008,8.3206
1.0552,0.0488,-0.1304,2.5267,-5.2443,8.7634
1.0598,0.0464,-0.1394,2.4122,-5.542,8.916
1.0688,0.0493,-0.1184,2.4504,-5.5573,9.084
1.0796,0.0491,-0.1165,2.2672,-5.7557,9.1832
1.0845,0.0474,-0.1199,2.0916,-5.7176,9.1374
1.0986,0.043,-0.113,2.0992,-5.8626,9.1908
1.1101,0.0486,-0.1155,2.0687,-5.4962,8.8702
1.1243,0.0466,-0.0999,2.0763,-5.6031,8.6489
1.1301,0.0437,-0.0916,2.0076,-5.2519,8.374
1.1338,0.0452,-0.0867,1.8702,-5.0611,7.6794
1.1411,0.042,-0.0891,2.1603,-4.8931,7.1679
1.1523,0.0366,-0.0793,2.3969,-4.5954,6.4962
1.158,0.0356,-0.0762,2.4427,-4.3893,5.5344
1.1597,0.0378,-0.0764,2.7634,-4.0916,4.855
1.166,0.0354,-0.072,3.0916,-3.9084,3.8779
