ax,ay,az,gx,gy,gz
-0.6272,-0.209,0.1484,-38.1069,-2.2443,157.6641
-0.6045,-0.231,0.1704,-36.0763,-1.6336,166.6947
-0.5947,-0.2351,0.1909,-32.8397,-2.0687,175.9618
-0.5942,-0.2559,0.2178,-29.0229,-3.8855,185.7863
-0.574,-0.2837,0.2339,-24.1832,-5.9695,195.4504
-0.5647,-0.3164,0.2454,-19.1527,-8.7786,205.313
-0.5491,-0.3474,0.2695,-13.626,-11.8092,215.0687
-0.5398,-0.3984,0.2788,-7.1756,-15.771,224.542
-0.5232,-0.4233,0.2686,-0.5038,-19.5649,234.1908
-0.4849,-0.4482,0.2646,7.3817,-24.626,244.3512
-0.4663,-0.4604,0.2605,14.3588,-29.8244,250.1298
-0.428,-0.4692,0.2522,22.458,-36.6183,250.1298
-0.3911,-0.4868,0.2341,30.1221,-43.2443,250.1298
-0.3254,-0.5005,0.2026,36.9542,-49.5191,250.1298
-0.2554,-0.5156,0.1589,43.2748,-55.9924,250.1298
-0.1794,-0.5317,0.1113,48.6565,-61.9924,250.1298
-0.0903,-0.5481,0.0537,53.4351,-66.9542,250.1298
0.0098,-0.5549,-0.0056,57.3206,-70.8702,250.1298
0.0583,-0.5503,-0.0479,60.1756,-72.5649,250.1298
0.176,-0.5674,-0.106,62.7863,-72.7481,250.1298
0.3091,-0.5833,-0.1738,64.7481,-71.9695,250.1298
0.4456,-0.6072,-0.2197,65.9542,-69.5649,250.1298
0.5845,-0.6204,-0.2852,67.2214,-65.5267,250.1298
0.7241,-0.637,-0.3318,68.2061,-60.5038,250.1298
0.8701,-0.6572,-0.3889,69.1527,-53.9313,250.1298
1.0127,-0.6731,-0.4255,70.1679,-46.5496,250.1298
1.1445,-0.6946,-0.47,71.0076,-38.8244,250.1298
1.2158,-0.7056,-0.478,71.771,-30.3053,250.1298
1.3362,-0.728,-0.5046,72.0992,-21.9084,250.1298
1.5208,-0.7598,-0.5605,72.5954,-10.3282,250.1298
1.6211,-0.7886,-0.5752,72.855,-1.1069,250.1298
1.6704,-0.7947,-0.5803,72.771,7.4351,250.1298
1.7471,-0.8159,-0.5815,72.5496,15.3435,250.1298
1.8118,-0.8286,-0.5715,71.8321,21.7786,250.1298
1.8779,-0.823,-0.5767,70.6336,26.8473,250.1298
1.9351,-0.8191,-0.5647,69.1221,30.8092,250.1298
1.9651,-0.8132,-0.562,67.3588,33.0229,250.1298
1.9999,-0.8003,-0.5623,65.2443,34.5496,250.1298
1.9999,-0.7937,-0.5825,62.8702,35.9008,250.1298
1.9999,-0.7915,-0.5752,60.0534,36.6641,250.1298
1.9999,-0.7881,-0.5945,57.0305,36.7099,250.1298
1.9999,-0.7861,-0.6245,53.4809,36.1985,250.1298
1.9999,-0.7871,-0.6575,49.7786,34.7099,241.374
1.9999,-0.7913,-0.6558,45.771,32.542,232.4657
1.988,-0.78,-0.6755,41.5496,29.6565,222.7481
1.9548,-0.772,-0.6836,36.7939,26.1603,214.2137
1.9182,-0.7517,-0.6853,32.0305,22.0458,206.4275
1.8933,-0.7468,-0.6699,27.6641,17.2901,199.5267
1.8611,-0.7241,-0.6604,22.0611,10.9313,192.7176
1.8259,-0.7026,-0.636,16.9924,4.5038,187.5343
1.8015,-0.6958,-0.6321,11.6718,-1.771,183.5343
1.7822,-0.676,-0.6299,6.3206,-7.7176,180.1298
1.7651,-0.6802,-0.6235,1.1527,-12.9466,177.3053
1.7551,-0.6904,-0.6257,-3.9542,-17.3588,175.1679
1.7532,-0.6941,-0.6086,-8.4427,-21.0687,173.2366
1.7517,-0.7,-0.6116,-12.3435,-23.9313,171.6412
1.762,-0.699,-0.5986,-16.3817,-25.9618,169.9847
1.7776,-0.7,-0.5808,-19.4656,-26.6412,168.9084
1.7944,-0.7019,-0.5559,-22.3206,-26.4656,167.5649
1.8164,-0.7065,-0.5232,-25.0229,-25.3664,166.2901
1.8408,-0.7126,-0.4958,-27.3817,-23.771,165.084
1.8721,-0.7263,-0.4519,-29.2901,-21.1527,163.9542
1.896,-0.7488,-0.4211,-30.7023,-18.145,162.4962
1.9299,-0.7686,-0.3894,-31.5038,-14.4275,160.9084
1.9353,-0.7805,-0.375,-31.7328,-9.6794,159.084
1.9504,-0.7908,-0.3347,-31.3359,-4.1908,156.4809
1.9695,-0.8052,-0.2986,-30.3359,0.7939,153.9695
1.9846,-0.8184,-0.2485,-29.0229,6.1298,150.6718
1.9871,-0.8198,-0.1887,-27.2519,11.0076,147.6488
1.9934,-0.8301,-0.1311,-25.0687,15.8244,144.626
1.9905,-0.8381,-0.0891,-22.4886,20.4046,141.458
1.9941,-0.8474,-0.05,-19.5496,24.8092,138.5725
1.9973,-0.8538,-0.0464,-16.5191,28.9389,135.9313
1.9999,-0.8706,-0.0181,-12.8626,34.0229,132.8931
1.9999,-0.8896,0.0061,-9.4046,39.1145,130.2366
1.9999,-0.9053,0.0151,-5.2901,43.8473,127.7176
1.9999,-0.916,0.0317,-1.3282,49.3435,125.1832
1.9999,-0.9233,0.0378,2.458,55.0382,122.8931
1.9999,-0.9272,0.0537,6.3053,60.6489,119.9008
1.9999,-0.9246,0.0647,10.1832,65.4122,116.8168
1.9999,-0.9253,0.0671,13.6412,70.0,113.7405
1.9999,-0.9226,0.073,17.2366,73.5038,110.1069
1.9999,-0.9143,0.0813,20.3893,76.1832,106.6031
1.9922,-0.9055,0.0898,23.2672,78.2519,102.4809
1.9768,-0.8979,0.1013,26.4886,79.5802,97.4885
1.958,-0.8911,0.1106,28.0382,79.7634,93.2443
1.9463,-0.8931,0.1067,29.4427,79.1603,88.8321
1.9365,-0.8799,0.1118,30.374,77.4733,84.4122
1.9102,-0.8682,0.1289,31.0305,75.0076,79.7939
1.9028,-0.8589,0.1294,31.1069,71.6947,75.7023
1.8948,-0.8474,0.126,31.4733,67.9084,71.5191
1.8813,-0.8406,0.1375,31.6641,63.7252,67.9695
1.8767,-0.8274,0.1282,31.458,59.145,64.9008
1.8855,-0.8164,0.1245,31.5573,54.5038,61.7328
1.8921,-0.8132,0.1057,31.1298,50.5573,58.8626
1.9106,-0.8149,0.0881,30.9847,46.229,56.2137
1.9202,-0.8196,0.0754,30.4656,42.7634,53.084
1.9497,-0.8152,0.0618,29.9695,39.7252,50.0229
1.9663,-0.8159,0.0381,29.4122,37.3359,46.8092
1.998,-0.8154,0.0352,28.458,35.1374,43.3969
1.9999,-0.8049,0.0225,27.1832,32.7863,39.7481
1.9999,-0.7888,0.0447,26.4046,29.4427,36.2672
1.9999,-0.8079,0.0303,24.9618,26.7405,33.0076
1.9999,-0.8311,0.0125,23.458,26.5267,29.5267
1.9999,-0.844,-0.0137,22.0,26.229,25.7939
1.9999,-0.8535,-0.0266,20.6336,26.6183,21.3511
1.9999,-0.8569,-0.0161,19.6947,26.3969,16.5725
1.9999,-0.8589,-0.0046,18.6031,25.3359,11.4427
1.9999,-0.855,0.0042,17.6412,23.3817,5.9466
1.9999,-0.8481,0.0281,16.7176,21.0153,0.1756
1.9999,-0.8511,0.0315,15.6718,18.4275,-5.2137
1.9999,-0.8569,0.0286,14.7481,15.7939,-11.0992
1.9999,-0.864,0.0054,13.5267,14.0687,-17.1527
1.9999,-0.8738,-0.0061,12.2748,12.2748,-23.2443
1.9999,-0.8679,-0.0088,11.313,10.4962,-29.9542
1.9999,-0.8604,-0.02,10.0076,8.8702,-36.374
1.9999,-0.8557,-0.0215,8.6412,7.1221,-42.3053
1.9999,-0.8459,-0.0032,7.6718,5.7176,-47.9771
1.9999,-0.8457,-0.0046,6.2901,4.4046,-53.855
1.9999,-0.8438,-0.0081,5.0611,3.6718,-59.4198
1.9999,-0.842,-0.0117,3.7786,3.5496,-64.2901
1.9999,-0.8428,-0.0144,2.687,3.8168,-68.7023
1.9999,-0.8376,-0.001,1.4962,4.1527,-73.0687
1.9999,-0.8333,-0.002,0.5115,4.8321,-76.4962
1.9999,-0.835,0.0063,0.0458,5.5191,-80.1679
1.9999,-0.8359,0.0081,-0.3511,5.7863,-83.6794
1.9573,-0.8281,0.0254,-0.2901,5.7099,-87.1374
1.9131,-0.8374,0.0466,-0.3435,5.6947,-90.7481
1.8804,-0.8347,0.0557,0.0687,5.2672,-93.2061
1.8552,-0.8315,0.0681,0.4733,4.3053,-96.0076
1.8149,-0.825,0.0762,1.1069,3.4046,-99.0382
1.7693,-0.8101,0.0825,2.2366,1.9466,-101.0992
1.7314,-0.7959,0.0991,2.9313,0.3664,-102.771
1.6924,-0.7893,0.0962,3.8244,-1.2977,-104.1832
1.6606,-0.7817,0.0923,4.916,-3.0611,-105.5954
1.6296,-0.7783,0.1028,5.771,-4.7176,-106.2748
1.6064,-0.769,0.0916,6.7176,-6.2214,-107.084
1.5923,-0.7671,0.0959,7.5344,-7.2672,-107.6489
1.5593,-0.7466,0.0781,8.7634,-8.6183,-108.7252
1.5376,-0.7358,0.0786,9.771,-9.4198,-109.0611
1.52,-0.7158,0.0759,10.8855,-10.1679,-109.5038
1.5,-0.7029,0.0784,11.7786,-11.084,-110.1298
1.4927,-0.6909,0.0713,12.4885,-11.9542,-110.7328
1.4785,-0.6841,0.0674,13.1069,-12.8626,-110.9618
1.4807,-0.6807,0.0593,13.771,-13.771,-111.6412
1.4683,-0.6719,0.0532,14.4351,-14.4809,-112.4962
1.46,-0.6589,0.0576,14.9237,-15.0687,-113.3588
1.4558,-0.6536,0.0439,15.2748,-15.6947,-114.313
1.4482,-0.6489,0.0342,15.9847,-16.0229,-115.4198
1.4375,-0.6426,0.0244,16.6641,-16.4122,-116.9542
1.4326,-0.6357,0.0117,17.1069,-16.5114,-118.9389
1.4207,-0.6357,-0.002,17.7939,-16.4656,-120.7176
1.4136,-0.6313,-0.0078,18.6412,-16.6641,-122.5343
1.3972,-0.6169,-0.0237,19.0458,-16.8015,-124.5496
1.3789,-0.6042,-0.0498,19.3817,-17.2672,-126.1145
1.3628,-0.5979,-0.0569,19.687,-17.7405,-128.0153
1.3418,-0.5891,-0.0818,19.4809,-18.4656,-129.3435
1.3342,-0.5801,-0.0813,19.0992,-19.5344,-130.687
1.3098,-0.5676,-0.1018,18.6565,-20.7176,-131.7099
1.2979,-0.5522,-0.0986,17.4275,-21.6489,-132.9008
1.2869,-0.5457,-0.1091,16.3435,-23.1603,-133.9695
1.2751,-0.5342,-0.1284,15.0611,-24.2137,-135.1908
1.2671,-0.5203,-0.1406,13.6183,-25.7405,-136.084
1.2551,-0.509,-0.1506,12.0992,-27.2443,-137.3359
1.2432,-0.5027,-0.1479,10.4885,-28.8015,-138.5496
1.2339,-0.4917,-0.1584,8.7176,-30.1756,-139.7634
1.2268,-0.4878,-0.167,7.1603,-31.5496,-141.0992
1.2212,-0.4802,-0.1826,5.542,-33.0458,-142.4657
1.2197,-0.4722,-0.1753,3.9924,-33.8626,-143.5191
1.2136,-0.4709,-0.1738,2.5954,-34.3511,-145.0687
1.21,-0.4573,-0.1785,1.3817,-34.4885,-146.1603
1.2119,-0.4587,-0.1816,0.0153,-34.2137,-147.0076
1.2002,-0.448,-0.1787,-1.2748,-33.5573,-148.2595
1.187,-0.4492,-0.1824,-2.4122,-32.9771,-149.4198
1.1826,-0.4529,-0.1816,-3.3969,-32.2061,-150.1985
1.1633,-0.448,-0.1719,-4.3282,-31.3511,-151.4046
1.1492,-0.4473,-0.1592,-4.7863,-30.374,-152.2519
1.1431,-0.4512,-0.1479,-5.4809,-29.9771,-152.9237
1.1326,-0.4417,-0.1338,-5.9847,-29.7481,-153.7939
1.1206,-0.4448,-0.1172,-6.5191,-29.7023,-154.5267
1.103,-0.4387,-0.0967,-6.626,-30.0916,-155.1908
1.1003,-0.4338,-0.0867,-6.7939,-30.2366,-155.916
1.0881,-0.4365,-0.0801,-6.7405,-30.2443,-156.6107
1.0757,-0.4348,-0.0867,-6.5115,-29.8702,-157.4275
1.0732,-0.4343,-0.0771,-5.9237,-28.8779,-157.8092
1.0647,-0.4336,-0.0789,-5.5115,-27.9237,-158.313
1.0605,-0.4297,-0.0688,-4.9695,-26.4122,-158.8015
1.0464,-0.4351,-0.0742,-4.4275,-24.5954,-159.1145
1.0342,-0.4375,-0.0649,-3.3588,-22.1679,-159.3817
1.0181,-0.4358,-0.0745,-2.458,-19.3435,-159.7786
0.9944,-0.4282,-0.0732,-1.0534,-16.3511,-159.6718
0.9668,-0.4211,-0.0708,0.1221,-13.8855,-159.5038
0.9438,-0.415,-0.064,1.5649,-11.3359,-159.1832
0.9226,-0.4148,-0.0703,2.8855,-9.458,-158.1679
0.9009,-0.3984,-0.0676,3.9924,-7.9466,-157.229
0.8853,-0.4016,-0.0676,4.771,-7.0305,-156.1679
0.8645,-0.3926,-0.0671,5.4427,-6.2214,-154.771
0.8516,-0.3828,-0.0674,6.1603,-5.8397,-153.1908
0.8367,-0.3743,-0.0703,6.6947,-5.2443,-151.7099
0.8167,-0.3689,-0.0645,7.2366,-5.145,-150.1374
0.8137,-0.3562,-0.0713,7.4733,-4.9389,-148.6107
0.7964,-0.3433,-0.0815,7.6336,-4.8626,-147.1298
0.783,-0.3271,-0.0889,7.7786,-4.7634,-145.9847
0.7727,-0.3232,-0.0891,7.7939,-4.7099,-144.6488
0.7566,-0.3069,-0.0945,7.8931,-4.8931,-143.6718
0.7432,-0.3083,-0.095,7.9389,-5.4351,-142.2595
0.75,-0.303,-0.0945,7.7557,-6.0763,-141.2824
0.7363,-0.2979,-0.093,7.6412,-6.8168,-140.2443
0.7251,-0.2803,-0.0886,7.2443,-7.7863,-139.0687
0.7246,-0.2744,-0.0974,7.145,-8.8855,-137.7405
0.7124,-0.2688,-0.1052,6.8015,-10.0382,-136.4122
0.7209,-0.2576,-0.1145,6.3435,-10.9237,-135.1069
0.7122,-0.2573,-0.1113,5.9008,-12.374,-133.8397
0.7148,-0.2495,-0.1089,5.2901,-13.7328,-132.3588
0.7129,-0.2607,-0.1121,4.687,-15.1374,-131.1221
0.7144,-0.2446,-0.1072,4.3359,-16.2901,-130.0153
0.7114,-0.2451,-0.1125,3.8244,-17.8855,-128.8626
0.7195,-0.2358,-0.1069,3.1374,-19.4122,-127.9466
0.7234,-0.2351,-0.1055,2.5191,-21.5878,-127.4275
0.7288,-0.2329,-0.1077,2.0305,-23.687,-127.1145
0.7351,-0.2261,-0.0933,1.2748,-26.3435,-126.9313
0.7412,-0.2307,-0.0977,0.6565,-29.1145,-126.8015
0.749,-0.2271,-0.0881,-0.084,-31.9237,-127.1756
0.7522,-0.2336,-0.0942,-0.7481,-34.9389,-127.3893
0.7646,-0.2275,-0.0952,-1.1679,-37.7481,-127.8702
0.7715,-0.2205,-0.1003,-1.8015,-40.4733,-128.3282
0.7817,-0.2305,-0.1052,-2.3969,-43.2061,-128.6488
0.7969,-0.229,-0.1003,-2.7786,-45.5878,-129.4351
0.8074,-0.2366,-0.0999,-3.4427,-47.771,-130.3282
0.8123,-0.2202,-0.1023,-4.0153,-49.6641,-130.9542
0.8157,-0.2158,-0.1086,-4.2977,-51.0458,-131.8626
0.8137,-0.2114,-0.1094,-4.6336,-52.1679,-132.7939
0.8074,-0.2141,-0.1196,-4.6183,-52.8779,-133.9542
0.7983,-0.208,-0.125,-4.5191,-53.6718,-134.7099
0.7954,-0.2056,-0.1187,-4.5038,-54.5954,-135.6794
0.7844,-0.1902,-0.1335,-4.458,-55.3053,-136.0076
0.783,-0.1863,-0.1323,-4.1603,-55.8168,-136.0458
0.7749,-0.1663,-0.1389,-3.9008,-56.0916,-135.7176
0.7742,-0.1567,-0.1445,-3.7786,-55.8702,-135.4046
0.7693,-0.1545,-0.1489,-3.6031,-55.0992,-134.3969
0.7656,-0.1379,-0.1609,-3.2519,-53.7328,-133.3817
0.759,-0.127,-0.1758,-2.8092,-51.6183,-132.0305
0.7483,-0.1221,-0.1804,-2.6947,-49.374,-130.4122
0.74,-0.1189,-0.1931,-2.2061,-47.1527,-128.9618
0.7307,-0.1079,-0.1958,-1.8092,-44.8168,-127.1527
0.7183,-0.095,-0.2009,-1.6718,-42.2901,-125.1298
0.7102,-0.0911,-0.21,-1.2443,-39.1603,-122.855
0.7031,-0.0786,-0.2087,-0.7481,-36.1985,-120.7786
0.6985,-0.075,-0.2195,-0.458,-33.0992,-118.5573
0.6851,-0.0684,-0.219,-0.229,-30.3282,-116.4962
0.6685,-0.0605,-0.2319,0.0916,-26.9389,-114.7328
0.6694,-0.0574,-0.2305,0.4275,-23.9847,-112.9084
0.6482,-0.0518,-0.2266,0.5038,-20.9237,-110.5038
0.636,-0.0459,-0.2375,0.8092,-18.6031,-108.5573
0.6248,-0.0339,-0.2241,1.3435,-16.4504,-106.8015
0.604,-0.0249,-0.2251,1.3435,-14.6565,-104.4351
0.5911,-0.0186,-0.2197,1.3893,-13.8092,-102.313
0.5771,-0.0073,-0.2234,1.4962,-13.1603,-100.3053
0.5686,-0.0107,-0.22,1.2977,-12.8397,-97.2748
0.5583,-0.0049,-0.2222,1.3206,-12.7863,-95.7863
0.5649,-0.0037,-0.2139,1.3053,-12.855,-93.2901
0.5522,0.0015,-0.2197,1.0687,-12.9542,-90.313
0.5505,0.0049,-0.2212,0.8626,-13.2519,-87.3817
0.5564,0.01,-0.218,0.6718,-13.7786,-85.0382
0.5437,0.0112,-0.2246,0.4504,-14.2061,-82.6718
0.5554,0.0161,-0.22,0.3588,-14.6947,-80.4427
0.551,0.0205,-0.2209,0.0534,-15.3588,-78.5267
0.5544,0.0247,-0.2168,0.0458,-16.084,-76.8015
0.5544,0.0286,-0.2175,0.0,-16.7176,-75.0611
0.5569,0.0361,-0.2097,-0.2214,-17.6107,-73.5191
0.553,0.0479,-0.2002,-0.4122,-18.687,-72.2366
0.5569,0.0513,-0.198,-0.6718,-19.771,-70.9466
0.5535,0.0576,-0.1995,-0.8092,-21.0458,-70.2748
0.5491,0.0642,-0.1819,-0.7481,-23.0687,-69.0305
0.5461,0.0674,-0.1738,-0.9466,-25.2443,-68.0076
0.5378,0.0708,-0.167,-0.9847,-27.6947,-67.3282
0.5435,0.0762,-0.1658,-1.2137,-30.3282,-66.084
0.5337,0.0752,-0.1624,-1.2366,-33.0916,-65.0534
0.5344,0.0835,-0.1714,-1.1069,-35.7099,-63.916
0.5366,0.0815,-0.1685,-1.1221,-38.2672,-62.5954
0.5398,0.0903,-0.1819,-1.1527,-40.6565,-61.0382
0.5403,0.0962,-0.1826,-0.9466,-42.3435,-59.3053
0.551,0.0955,-0.2034,-0.9084,-43.8397,-57.7328
0.553,0.1003,-0.208,-0.8473,-44.5649,-55.9084
0.5547,0.1023,-0.2222,-0.771,-44.916,-53.6489
0.5659,0.1089,-0.2234,-0.687,-45.0076,-51.5878
0.571,0.1121,-0.2363,-0.5725,-44.4809,-49.4046
0.5879,0.1116,-0.2444,-0.6183,-43.855,-47.0229
0.6038,0.1133,-0.2449,-0.6031,-42.8855,-44.5802
0.6096,0.1189,-0.251,-0.6794,-41.5649,-42.1679
0.6248,0.1167,-0.2612,-0.8626,-39.8168,-39.3282
0.6406,0.1184,-0.2693,-0.4427,-37.6183,-36.9618
0.6479,0.1174,-0.2759,-0.2443,-35.1221,-34.6183
0.6677,0.1133,-0.2708,-0.3588,-32.0611,-32.1145
0.6863,0.114,-0.2791,-0.0305,-28.9237,-29.8931
0.7029,0.116,-0.282,0.145,-25.374,-27.8779
0.7219,0.113,-0.2732,0.4504,-21.7328,-25.8321
0.731,0.1079,-0.2732,0.8397,-18.1527,-24.1374
0.7566,0.1125,-0.2732,1.2061,-14.5725,-22.7939
0.7639,0.1121,-0.2649,1.6183,-11.0153,-21.4504
0.7764,0.1172,-0.2571,2.1908,-7.1145,-20.2519
0.7783,0.1045,-0.2439,2.7557,-4.0611,-19.5114
0.7852,0.1121,-0.2444,3.3817,-0.9847,-19.1527
0.7834,0.1106,-0.2263,3.9695,1.626,-18.7786
0.7834,0.1147,-0.2263,4.7099,4.0534,-18.6412
0.7864,0.1091,-0.2065,5.4427,6.1603,-18.4351
0.7795,0.1062,-0.2102,6.1221,7.8092,-18.4275
0.7671,0.1099,-0.1985,7.1527,9.458,-17.9542
0.7661,0.1072,-0.1855,7.9237,10.6641,-18.2214
0.7524,0.1113,-0.1841,8.8168,11.3817,-17.8855
0.7393,0.1094,-0.1787,9.542,11.8397,-17.7786
0.7246,0.1123,-0.176,10.2595,11.7328,-17.1985
0.7246,0.114,-0.1716,10.9924,11.6565,-16.7939
0.7119,0.1125,-0.1716,11.6336,10.9771,-16.1527
0.6995,0.1292,-0.1782,11.9313,10.4275,-15.4198
0.6912,0.125,-0.1721,12.3664,9.6565,-14.5038
0.6836,0.1235,-0.1873,12.6031,8.6565,-13.6107
0.6833,0.1257,-0.1919,12.8626,7.7099,-12.5267
0.6738,0.1301,-0.1934,13.0076,6.6947,-11.1832
0.6721,0.1333,-0.1914,13.0763,5.6947,-9.8626
0.6724,0.1328,-0.1943,13.145,4.771,-8.6641
0.6636,0.1321,-0.2024,13.3588,3.6336,-7.2977
0.6577,0.1411,-0.207,13.4046,2.687,-5.5573
0.6643,0.1404,-0.2073,13.2595,2.0763,-4.2748
0.6648,0.1411,-0.2183,13.2672,1.3664,-2.4885
0.6709,0.1472,-0.2332,13.1221,0.626,-0.6947
0.6672,0.1458,-0.2241,12.8702,0.2137,1.2366
0.6858,0.145,-0.2324,12.687,-0.4733,3.0
0.6846,0.1548,-0.2363,12.3588,-0.8092,4.6718
0.6821,0.1519,-0.2273,11.8244,-1.6412,6.5344
0.6948,0.1501,-0.2371,11.6565,-2.3664,8.229
0.7026,0.1562,-0.2358,10.916,-3.2519,10.1145
0.7207,0.1611,-0.2412,10.5115,-3.9389,11.7481
0.7361,0.1616,-0.2285,9.9847,-4.5802,13.4504
0.7559,0.1577,-0.2468,9.4351,-5.0305,14.8168
0.7739,0.1548,-0.2502,8.6641,-5.4504,16.2748
0.7971,0.1523,-0.2527,8.0687,-5.4504,17.6641
0.8025,0.1509,-0.2505,7.6412,-5.3893,18.542
0.8281,0.1421,-0.2488,7.1145,-5.229,19.5344
0.8464,0.1431,-0.2424,6.6107,-5.1908,20.374
0.8704,0.1394,-0.2485,6.2672,-4.771,20.8092
0.8892,0.1335,-0.2463,5.771,-4.6183,21.2366
0.9182,0.1348,-0.2439,5.5038,-4.3282,21.5267
0.9304,0.1287,-0.2402,5.084,-3.8855,21.5802
0.9504,0.126,-0.2427,4.8473,-3.7863,21.5344
0.9612,0.1221,-0.24,4.6107,-3.3206,21.1832
0.9783,0.125,-0.2312,4.3969,-2.9466,20.9695
0.9915,0.1157,-0.2444,4.3893,-2.458,20.3588
1.0046,0.1113,-0.2371,4.2748,-1.7405,19.9389
1.0271,0.1077,-0.2356,4.1069,-1.0992,19.2061
1.033,0.1106,-0.2344,4.1908,-0.2672,18.4351
1.0417,0.1047,-0.2375,4.2748,0.5267,17.6794
1.0481,0.1079,-0.231,4.2595,1.2672,16.8626
1.0518,0.1023,-0.2317,4.4046,1.7863,16.1145
1.0586,0.0989,-0.2322,4.5954,2.6947,15.4733
1.0605,0.0986,-0.2217,4.6565,3.4809,14.5038
1.0615,0.0974,-0.2239,4.7939,3.9618,13.6947
1.0696,0.1033,-0.2212,5.4046,4.5038,13.1985
1.0662,0.1006,-0.2236,5.6412,5.0458,12.6107
1.0701,0.0989,-0.2227,5.7786,5.687,12.1679
