ax,ay,az,gx,gy,gz
1.4456,-0.0386,-0.0928,0.9695,-13.0534,-9.9313
1.4795,-0.053,-0.0637,-0.2977,-17.2824,-12.0763
1.5249,-0.0703,-0.0557,-1.5344,-22.084,-14.7099
1.5776,-0.0967,-0.0383,-2.6336,-27.3893,-18.4198
1.6326,-0.1255,-0.0312,-3.6489,-32.9618,-22.5802
1.6926,-0.1409,-0.009,-4.5954,-39.1069,-27.6565
1.7439,-0.1772,-0.0342,-5.8321,-44.9542,-33.3206
1.8149,-0.219,-0.0637,-7.2061,-49.855,-38.8473
1.8254,-0.2227,-0.0374,-9.0076,-56.145,-45.1527
1.9272,-0.1853,-0.0071,-11.3435,-64.8473,-53.084
1.9714,-0.2021,0.0,-12.9389,-72.7176,-60.8168
1.9999,-0.2224,-0.0029,-14.4351,-82.374,-68.5649
1.9999,-0.239,0.0081,-16.2595,-92.0534,-76.5496
1.9999,-0.2712,-0.0063,-18.2061,-99.5573,-85.0763
1.9999,-0.2776,-0.0217,-20.5802,-106.0153,-92.8626
1.9999,-0.2981,-0.0234,-23.0382,-113.8855,-101.8321
1.9999,-0.3142,-0.0361,-26.313,-120.4504,-110.9695
1.9999,-0.3247,-0.0684,-29.3588,-125.542,-120.1145
1.9999,-0.3206,-0.0791,-32.313,-129.2519,-129.916
1.9999,-0.3198,-0.095,-35.0,-131.4046,-140.3817
1.9999,-0.3179,-0.0879,-37.9695,-132.4275,-151.1069
1.9999,-0.3215,-0.0923,-40.5649,-132.5878,-162.4962
1.9999,-0.342,-0.0911,-43.4351,-131.1908,-174.5573
1.9999,-0.3628,-0.0745,-46.0458,-128.9542,-186.4809
1.9999,-0.3738,-0.0767,-48.2519,-125.458,-199.0305
1.9999,-0.386,-0.0674,-49.8931,-121.2214,-212.0992
1.9999,-0.4041,-0.0413,-50.7634,-115.3282,-225.2214
1.9999,-0.4058,-0.0237,-51.3893,-108.6565,-239.0916
1.9999,-0.4094,0.0012,-51.4504,-102.1908,-250.1374
1.9999,-0.4236,0.0444,-50.2824,-96.0687,-250.1374
1.9999,-0.4348,0.075,-48.9618,-89.8015,-250.1374
1.9999,-0.4514,0.1045,-47.084,-83.2824,-250.1374
1.9999,-0.449,0.1338,-44.5115,-78.5573,-250.1374
1.9999,-0.4556,0.1714,-41.3893,-74.7176,-250.1374
1.9999,-0.4585,0.1826,-38.145,-71.1298,-250.1374
1.9999,-0.4727,0.2026,-34.5954,-68.1145,-250.1374
1.9999,-0.4785,0.2112,-31.1069,-65.8244,-250.1374
1.9999,-0.4858,0.2236,-27.313,-63.374,-250.1374
1.9999,-0.4993,0.2319,-24.2672,-61.7481,-250.1374
1.9999,-0.5071,0.2146,-21.0382,-60.3053,-250.1374
1.9999,-0.5222,0.208,-18.5496,-59.0534,-250.1374
1.9999,-0.5366,0.1934,-16.3435,-58.0229,-250.1374
1.9999,-0.5386,0.1746,-14.3893,-56.4046,-250.1374
1.9999,-0.542,0.1855,-12.8397,-55.3435,-250.1374
1.9999,-0.5535,0.1682,-11.4504,-55.313,-250.1374
1.9999,-0.5535,0.1641,-10.1908,-55.6412,-250.1374
1.9999,-0.5713,0.1326,-8.6947,-55.2443,-250.1374
1.9999,-0.5908,0.0862,-7.8397,-54.3282,-250.1374
1.9999,-0.605,0.0608,-7.0763,-53.8015,-250.1374
1.9999,-0.6108,0.0046,-6.5649,-52.5191,-250.1374
1.9999,-0.614,-0.0439,-6.9771,-50.6031,-250.1374
1.9999,-0.6189,-0.0693,-8.1908,-48.0687,-250.1374
1.9999,-0.6096,-0.092,-10.2443,-44.6794,-250.1374
1.9999,-0.6077,-0.0879,-12.687,-41.1298,-250.1374
1.9999,-0.6011,-0.0879,-16.7099,-37.5878,-250.1374
1.9999,-0.615,-0.0662,-20.1679,-36.0763,-250.1374
1.9999,-0.6204,-0.0305,-24.0458,-35.4809,-250.1374
1.9999,-0.6238,0.0117,-27.6489,-36.6412,-250.1374
1.9999,-0.6416,0.0439,-31.1603,-38.7557,-250.1374
1.9999,-0.6614,0.0781,-33.8397,-41.084,-250.1374
1.9999,-0.6838,0.1023,-36.0611,-43.4046,-250.1374
1.9999,-0.6799,0.1187,-37.4656,-45.9924,-250.1374
1.9849,-0.6619,0.157,-38.0,-51.8168,-250.1374
1.937,-0.7207,0.1682,-37.9771,-57.4122,-250.1374
1.9099,-0.7571,0.175,-38.1145,-62.0382,-250.1374
1.8694,-0.7661,0.1868,-38.4046,-63.9542,-250.1374
1.8369,-0.7673,0.2053,-38.313,-63.0687,-250.1374
1.7847,-0.7698,0.2295,-38.1603,-60.2824,-250.1374
1.7258,-0.7551,0.2336,-37.2443,-54.7786,-250.1374
1.6528,-0.7522,0.2197,-35.6947,-46.6336,-250.1374
1.5833,-0.749,0.2332,-33.5038,-38.458,-250.1374
1.498,-0.731,0.2368,-30.5496,-30.1679,-250.1374
1.4146,-0.7549,0.2065,-26.8931,-20.0611,-250.1374
1.3135,-0.7556,0.1624,-22.855,-9.145,-250.1374
1.2622,-0.7556,0.1609,-18.3817,2.687,-250.1374
1.1489,-0.7627,0.1309,-13.2519,14.1603,-250.1374
1.0442,-0.7581,0.0803,-7.0229,25.2214,-250.1374
0.9392,-0.7546,0.0378,-0.0611,35.916,-250.1374
0.8213,-0.741,0.0144,7.0153,45.5267,-250.1374
0.7046,-0.7083,-0.0034,14.3206,54.0305,-250.1374
0.5945,-0.6611,-0.0337,21.9389,61.4809,-250.1374
0.4812,-0.6138,-0.0632,29.1679,68.0763,-250.1374
0.426,-0.5918,-0.0786,36.3817,74.2214,-250.1374
0.3066,-0.5398,-0.1003,43.2519,81.3817,-250.1374
0.1133,-0.5295,-0.0977,49.626,86.9084,-250.1374
0.0508,-0.4739,-0.1101,55.626,91.5267,-250.1374
-0.0259,-0.4373,-0.1462,61.2595,95.9542,-250.1374
-0.1304,-0.386,-0.1538,66.8321,99.6947,-250.1374
-0.2319,-0.3188,-0.1389,72.2595,101.4275,-250.1374
-0.332,-0.2634,-0.1406,77.1374,102.4657,-250.1374
-0.3416,-0.2297,-0.2461,81.3511,102.8779,-250.1374
-0.4539,-0.1516,-0.2351,85.8702,102.6794,-250.1374
-0.5591,-0.0842,-0.2266,89.7481,101.7634,-250.1374
-0.6746,-0.0479,-0.2273,93.7557,99.7405,-250.1374
-0.7786,0.01,-0.2185,97.2595,96.4809,-250.1374
-0.875,0.052,-0.208,100.5649,92.7557,-250.1374
-0.9434,0.0872,-0.2021,102.9466,88.5115,-250.1374
-1.0154,0.1318,-0.2195,104.229,85.5725,-250.1374
-1.0933,0.1719,-0.2266,104.9847,82.8397,-250.1374
-1.0654,0.2009,-0.3315,105.2595,80.313,-250.1374
-1.1204,0.2278,-0.3518,105.5191,77.3893,-250.1374
-1.1946,0.2515,-0.3694,105.6718,73.8931,-250.1374
-1.2432,0.2615,-0.3752,105.9008,68.5725,-250.1374
-1.2832,0.269,-0.3772,106.2824,61.2901,-250.1374
-1.3411,0.303,-0.3496,106.2366,52.0229,-250.1374
-1.3916,0.3047,-0.3215,106.1374,41.2748,-250.1374
-1.4355,0.3235,-0.3088,106.1374,27.6183,-250.1374
-1.4324,0.3245,-0.3396,105.9389,14.5038,-250.1374
-1.4619,0.3359,-0.3599,105.7481,-2.3969,-250.1374
-1.4905,0.3516,-0.3618,105.6183,-18.5802,-250.1374
-1.512,0.3718,-0.3511,105.2443,-35.6031,-250.1374
-1.5251,0.3916,-0.3467,104.6412,-52.2137,-250.1374
-1.5313,0.436,-0.3391,103.8779,-68.229,-250.1374
-1.5386,0.4573,-0.3269,102.9313,-83.9847,-250.1374
-1.5359,0.4792,-0.3208,101.6565,-97.4275,-250.1374
-1.5315,0.4983,-0.3252,100.2672,-111.458,-250.1374
-1.5142,0.5066,-0.3396,98.7863,-123.4427,-246.0534
-1.4922,0.5725,-0.3369,96.9618,-135.2977,-229.2824
-1.4685,0.5967,-0.3489,95.4504,-143.4198,-214.8855
-1.4292,0.6084,-0.395,93.6947,-148.084,-202.9466
-1.3967,0.634,-0.4209,92.0076,-151.7176,-189.2061
-1.356,0.655,-0.4236,89.8855,-152.9847,-176.916
-1.3091,0.6638,-0.4421,87.9084,-152.145,-164.9084
-1.2727,0.6746,-0.4541,85.7023,-149.2214,-153.084
-1.2185,0.6829,-0.4656,83.4504,-145.1298,-141.542
-1.1719,0.6814,-0.4888,81.1832,-139.5878,-130.3359
-1.1208,0.6726,-0.499,78.8015,-133.1832,-119.0153
-1.0667,0.665,-0.5371,76.4962,-126.7557,-108.1374
-1.0217,0.6626,-0.5693,74.0458,-119.3053,-97.3588
-0.9604,0.6572,-0.6079,71.6107,-111.2214,-87.0992
-0.8997,0.6401,-0.6494,68.9466,-102.5038,-76.8931
-0.8403,0.6323,-0.6753,66.313,-91.7252,-66.9237
-0.7893,0.6201,-0.707,63.4809,-83.3511,-57.1985
-0.7407,0.6035,-0.7336,60.4122,-73.5191,-48.0763
-0.6877,0.5959,-0.762,57.1221,-63.5725,-39.3206
-0.6514,0.5864,-0.7664,53.8626,-54.5878,-31.2748
-0.6355,0.5818,-0.7654,50.3435,-46.2824,-23.7099
-0.5991,0.5769,-0.7761,46.7405,-38.3664,-16.9924
-0.574,0.5708,-0.7966,43.374,-30.7405,-11.1527
-0.5471,0.5686,-0.8,39.7023,-23.5344,-6.0534
-0.5188,0.5686,-0.8079,35.7863,-16.5954,-1.7328
-0.5103,0.5691,-0.7996,31.8626,-10.7252,1.542
-0.4893,0.5686,-0.793,28.0,-5.4962,4.4733
-0.4854,0.5625,-0.7681,24.0305,-1.2595,6.1298
-0.4927,0.5659,-0.7549,19.9008,1.9313,7.145
-0.4746,0.5466,-0.7363,16.0763,4.3511,7.4351
-0.4683,0.5454,-0.7354,11.9847,5.7252,6.7786
-0.4512,0.5339,-0.7263,8.1603,6.0992,5.542
-0.4519,0.5171,-0.7187,4.458,6.084,3.8855
-0.4424,0.5061,-0.7073,0.9084,5.7863,1.6641
-0.4387,0.4993,-0.7041,-2.8015,4.8473,-1.2824
-0.4348,0.499,-0.7026,-6.1069,3.5038,-4.6412
-0.4329,0.4856,-0.6829,-9.3053,1.8473,-8.3359
-0.449,0.4875,-0.6482,-12.5649,-0.9924,-12.6336
-0.4556,0.4849,-0.6384,-15.542,-4.1908,-16.8626
-0.458,0.4868,-0.6238,-18.313,-6.5038,-21.4275
-0.4587,0.4941,-0.6123,-20.6489,-8.4427,-25.9695
-0.4692,0.5088,-0.6016,-22.7176,-10.5038,-30.5191
-0.48,0.522,-0.5684,-24.5573,-12.5878,-34.8779
-0.4846,0.5305,-0.5454,-26.3817,-14.7939,-38.8855
-0.4902,0.5403,-0.5264,-27.5114,-16.9695,-42.6336
-0.5049,0.5415,-0.5127,-28.7176,-19.229,-45.6031
-0.5149,0.5491,-0.4927,-29.3435,-21.3282,-47.7176
-0.5383,0.5386,-0.478,-29.771,-23.0,-49.9389
-0.5605,0.5371,-0.4575,-30.3359,-25.1527,-51.2137
-0.5781,0.5229,-0.4438,-30.6107,-26.6794,-51.8168
-0.5925,0.5068,-0.4392,-30.5344,-27.3664,-51.9771
-0.6204,0.488,-0.4487,-30.2901,-28.2214,-51.7634
-0.634,0.4824,-0.4409,-29.8397,-28.8855,-50.7328
-0.6406,0.4753,-0.4473,-29.313,-29.3053,-49.458
-0.666,0.4731,-0.4355,-28.3206,-29.5954,-47.4656
-0.6882,0.481,-0.4248,-27.0763,-29.7634,-44.5573
-0.7085,0.4834,-0.436,-25.9618,-29.542,-40.8473
-0.7185,0.4939,-0.4316,-24.3893,-28.8244,-37.2366
-0.7366,0.5115,-0.4438,-22.9618,-27.4427,-33.0229
-0.7446,0.5205,-0.4495,-21.4351,-25.5573,-28.1069
-0.7593,0.5457,-0.4614,-19.9771,-23.3053,-22.8626
-0.7776,0.5671,-0.4734,-18.4351,-20.5114,-17.1527
-0.7903,0.5779,-0.4856,-17.4275,-16.9313,-10.8626
-0.7983,0.593,-0.4944,-16.2672,-13.6565,-4.6794
-0.813,0.6113,-0.5073,-15.4733,-10.3893,2.2977
-0.8213,0.6179,-0.5029,-14.9618,-6.542,9.0458
-0.8318,0.6328,-0.511,-14.8855,-2.6336,16.4198
-0.8501,0.6458,-0.5151,-15.1374,0.9847,23.7634
-0.8579,0.6577,-0.5151,-15.8015,5.3588,31.1298
-0.8767,0.6648,-0.5261,-16.7405,9.7786,39.0534
-0.884,0.6746,-0.5261,-18.2214,13.8473,46.7023
-0.8899,0.6729,-0.5342,-19.5267,18.1069,54.5191
-0.9038,0.6736,-0.5425,-21.0153,21.7634,62.2977
-0.9114,0.6868,-0.5386,-22.7863,25.2061,69.4427
-0.9202,0.6819,-0.542,-24.6489,28.7405,77.6031
-0.9248,0.678,-0.532,-26.6947,31.4886,85.374
-0.9307,0.6719,-0.5403,-28.9847,33.7863,93.0153
-0.9331,0.6697,-0.5261,-31.1603,35.4198,100.8015
-0.9373,0.6689,-0.509,-33.687,35.7328,108.374
-0.9348,0.6541,-0.4839,-36.0305,35.0992,115.687
-0.9353,0.6514,-0.4807,-38.2672,34.0534,122.5573
-0.9355,0.6499,-0.4707,-40.0763,32.1756,128.7939
-0.9324,0.6423,-0.4597,-42.0305,30.0076,135.7481
-0.9263,0.6279,-0.4524,-43.4198,27.5344,141.8626
-0.9226,0.6282,-0.4407,-45.0382,25.0,147.5954
-0.9136,0.6155,-0.4226,-46.2519,21.8855,153.1527
-0.9136,0.6013,-0.429,-47.3664,18.9542,158.6183
-0.9114,0.5928,-0.415,-48.1832,16.0305,163.8931
-0.9138,0.573,-0.3958,-49.1832,12.9924,168.9389
-0.9133,0.5679,-0.3945,-49.7405,10.1221,173.5191
-0.9058,0.5728,-0.3972,-49.855,6.9924,178.5267
-0.9045,0.5684,-0.3826,-50.1069,3.0229,183.6183
-0.9023,0.5588,-0.363,-49.771,-0.9771,188.2366
-0.9048,0.5669,-0.3416,-49.3969,-5.6641,193.1145
-0.9033,0.554,-0.3167,-49.0916,-10.7252,197.8168
-0.8867,0.5554,-0.3057,-48.5191,-15.6336,203.0
-0.8691,0.5576,-0.2925,-48.0534,-20.7176,208.3282
-0.8577,0.5579,-0.2805,-47.7939,-24.7939,213.8168
-0.8481,0.5574,-0.2842,-47.1908,-28.6412,219.0458
-0.8242,0.5549,-0.2805,-47.145,-32.0076,225.3588
-0.7949,0.5544,-0.2751,-46.4733,-34.7481,231.5725
-0.7808,0.5413,-0.2651,-45.7176,-37.5878,237.5573
-0.7532,0.5337,-0.2551,-44.9847,-39.855,243.7634
-0.7268,0.5276,-0.2612,-43.8092,-41.0992,249.9008
-0.6978,0.5217,-0.2539,-42.4733,-41.4962,250.1298
-0.6685,0.5247,-0.2454,-41.4427,-41.7863,250.1298
-0.6375,0.5208,-0.2378,-40.229,-41.2214,250.1298
-0.6213,0.512,-0.2378,-39.0305,-40.1527,250.1298
-0.5789,0.5049,-0.2458,-37.855,-38.0687,250.1298
-0.5376,0.5049,-0.248,-36.6718,-34.5802,250.1298
-0.5046,0.4998,-0.248,-35.2977,-29.771,250.1298
-0.4646,0.5024,-0.2532,-33.5496,-24.0763,250.1298
-0.4316,0.5002,-0.2554,-32.1603,-18.0916,250.1298
-0.3933,0.4978,-0.2598,-30.6336,-11.0458,250.1298
-0.3574,0.4937,-0.2686,-29.084,-3.8702,250.1298
-0.3262,0.4885,-0.2659,-27.5496,3.6794,250.1298
-0.2998,0.4812,-0.2698,-26.1832,11.1756,250.1298
-0.2607,0.4597,-0.2722,-24.855,18.4962,250.1298
-0.2354,0.4612,-0.269,-23.8015,26.0763,250.1298
-0.2222,0.4512,-0.2737,-22.7557,33.4275,250.1298
-0.2009,0.438,-0.2661,-22.1298,40.458,250.1298
-0.1794,0.438,-0.27,-21.458,47.0229,250.1298
-0.147,0.4221,-0.2627,-21.0687,52.5954,250.1298
-0.1187,0.4072,-0.2766,-20.9008,57.2595,250.1298
-0.0857,0.3813,-0.271,-20.6718,61.6718,250.1298
-0.0637,0.3657,-0.2654,-20.9084,65.3893,250.1298
-0.0291,0.3572,-0.2603,-21.2672,67.9466,250.1298
-0.0149,0.3533,-0.2559,-21.4122,69.6641,250.1298
0.022,0.3433,-0.2461,-22.2595,70.9618,250.1298
0.052,0.333,-0.2412,-23.1985,71.8244,250.1298
0.093,0.3186,-0.2317,-24.2748,72.2137,250.1298
0.1211,0.2922,-0.2136,-25.6107,72.0687,250.1298
0.1423,0.2817,-0.2268,-27.0916,72.084,250.1298
0.1663,0.2659,-0.2056,-28.6107,71.6565,250.1298
0.1914,0.2495,-0.2009,-29.9924,70.5954,250.1298
0.2036,0.2427,-0.1975,-30.8473,69.6794,250.1298
0.2224,0.2336,-0.1953,-32.0229,67.8397,250.1298
0.2507,0.2317,-0.1711,-32.8702,65.5115,250.1298
0.2651,0.2256,-0.1467,-33.7863,62.458,250.1298
0.2874,0.218,-0.1189,-34.7634,58.0,250.1298
0.3149,0.2146,-0.1082,-35.7099,53.2748,250.1298
0.3513,0.1938,-0.095,-36.687,47.8473,250.1298
0.3835,0.1875,-0.0828,-37.4885,42.1527,250.1298
0.4221,0.1716,-0.0776,-38.3817,36.4122,250.1298
0.4309,0.1624,-0.0713,-39.1908,30.7939,250.1298
0.4653,0.1475,-0.0764,-39.542,25.7863,250.1298
0.4937,0.1414,-0.0588,-40.1221,20.3969,250.1298
0.5178,0.1331,-0.0535,-40.8015,15.8015,250.1298
0.5542,0.1226,-0.0447,-40.9008,11.4962,250.1298
0.5793,0.1345,-0.0366,-41.0458,6.9618,250.1298
0.6077,0.134,-0.0146,-41.0534,3.2977,250.1298
0.6384,0.1392,-0.0002,-40.6336,-0.3206,250.1298
0.6501,0.1345,0.0059,-40.1756,-3.2977,250.1298
0.6648,0.1277,0.0234,-39.7023,-6.3664,250.1298
0.7014,0.1177,0.0344,-38.7939,-8.9542,250.1298
0.7061,0.1006,0.0518,-37.5191,-11.2443,250.1298
0.7229,0.0876,0.0801,-36.313,-13.084,250.1298
0.7336,0.0615,0.1025,-34.9084,-14.7099,250.1298
0.7437,0.051,0.1228,-33.0916,-15.7405,250.1298
0.7573,0.0291,0.1267,-31.0305,-16.0763,250.1298
0.7607,-0.0005,0.1389,-28.6107,-15.855,250.1298
0.7612,-0.0107,0.1453,-25.9237,-15.7405,250.1298
0.7607,-0.0312,0.1624,-22.8397,-14.8168,250.1298
0.7683,-0.0476,0.1772,-19.6412,-13.6718,250.1298
0.7612,-0.0598,0.1997,-15.1527,-12.6489,250.1298
0.7527,-0.0928,0.2131,-10.1298,-11.7786,250.1298
0.7495,-0.1306,0.2126,-5.3435,-10.5344,250.1298
0.7429,-0.1494,0.2085,-1.2137,-9.8244,250.1298
0.7576,-0.179,0.2021,3.9618,-9.5038,250.1298
0.7874,-0.1995,0.1692,9.3053,-10.0153,250.1298
0.8159,-0.2275,0.1455,14.4809,-11.2901,250.1298
0.8562,-0.2527,0.1145,19.6412,-13.1679,250.1298
0.9014,-0.2786,0.074,25.1145,-15.0153,250.1298
0.9626,-0.2844,0.0386,29.7634,-15.9847,250.1298
1.0164,-0.2832,0.0017,34.458,-16.1832,250.1298
1.0857,-0.2808,-0.0244,38.626,-15.3053,250.1298
1.1265,-0.2739,-0.0474,41.9466,-13.5344,250.1298
1.1948,-0.2659,-0.0664,44.7481,-11.2443,250.1298
1.2725,-0.259,-0.1003,47.3359,-8.0153,250.1298
1.3574,-0.2576,-0.1177,49.1527,-4.1145,250.1298
1.4177,-0.2578,-0.1331,50.4427,0.458,250.1298
1.4753,-0.2554,-0.1504,51.2977,5.2366,250.1298
1.5264,-0.2539,-0.1572,51.8702,9.6641,250.1298
1.561,-0.2573,-0.1619,51.4351,14.2061,250.1298
1.5969,-0.2585,-0.1777,50.9771,18.855,250.1298
1.6143,-0.2539,-0.1653,50.0229,23.1756,250.1298
1.6658,-0.2368,-0.178,49.1527,26.4351,250.1298
1.6843,-0.2285,-0.1729,48.0763,27.5191,250.1298
1.7083,-0.2141,-0.1843,46.7328,27.6336,250.1298
1.7244,-0.1987,-0.1873,45.3206,27.4351,250.1298
1.75,-0.1963,-0.1965,43.8244,26.8015,250.1298
1.7703,-0.1921,-0.2083,41.9695,26.9542,250.1298
1.7847,-0.1899,-0.2017,40.3817,27.687,250.1298
1.803,-0.1924,-0.2109,38.6107,28.1679,250.1298
1.8374,-0.178,-0.2119,36.9618,28.5114,250.1298
1.8706,-0.1702,-0.2361,35.458,29.0305,250.1298
1.8931,-0.1624,-0.2417,33.9847,29.626,250.1298
1.9224,-0.1587,-0.2285,31.8702,31.3588,250.1298
1.9377,-0.1558,-0.2107,29.6336,32.6947,250.1298
1.9548,-0.1484,-0.1987,27.2214,34.1374,250.1298
1.9922,-0.1555,-0.1804,24.9313,35.6565,250.1298
1.9788,-0.1531,-0.1472,22.6489,36.9618,250.1298
1.991,-0.1575,-0.1345,20.626,38.4351,250.1298
1.9999,-0.1626,-0.1487,19.2519,41.0076,250.1298
1.9999,-0.1611,-0.136,18.1374,43.8397,250.1298
1.9999,-0.1538,-0.1343,17.6641,46.7099,246.1527
1.9999,-0.1636,-0.1221,17.5496,49.3282,239.1908
1.9999,-0.1665,-0.1201,17.7405,52.0992,232.7939
1.9999,-0.1692,-0.1174,18.6565,54.9466,225.7481
1.9999,-0.1694,-0.0989,19.6336,57.3206,219.2061
1.9999,-0.1665,-0.0576,20.8092,59.2977,213.084
1.9999,-0.1653,-0.0354,22.0534,60.9237,206.7328
1.9951,-0.165,-0.0232,23.2519,61.8397,200.542
1.9824,-0.156,-0.0068,24.3435,62.1908,194.2519
1.9614,-0.1606,0.0071,25.5725,62.2443,188.2061
1.9395,-0.1528,0.0132,26.5725,62.1145,182.4351
1.9192,-0.157,0.0261,27.6336,61.3435,176.7634
1.9045,-0.1631,0.0291,28.7176,60.1298,171.2519
1.8828,-0.1592,0.0403,30.1908,57.916,164.3512
1.8745,-0.1577,0.0322,31.4046,55.4885,159.4275
1.8726,-0.1562,0.0303,32.6641,52.8626,155.0611
1.8621,-0.1538,0.019,33.855,50.2061,151.084
1.856,-0.1501,0.0186,34.6718,48.0153,147.9313
1.8672,-0.1594,0.0088,35.4046,45.687,144.4046
1.8713,-0.1545,-0.0376,36.1603,44.2519,141.2366
1.8784,-0.1465,-0.0601,36.7176,43.8702,137.6031
1.8909,-0.1387,-0.0955,36.8626,43.9008,134.2977
1.8984,-0.1335,-0.1067,36.626,43.8473,130.7405
1.916,-0.1348,-0.1296,35.9466,43.8473,126.9771
1.9285,-0.1372,-0.1392,34.7099,44.0305,123.0916
1.9387,-0.1328,-0.1401,32.9084,44.4427,118.6718
1.9377,-0.126,-0.1426,30.8473,44.9695,113.9618
1.9333,-0.1221,-0.1482,28.6107,45.3893,108.9771
1.9141,-0.1162,-0.1497,26.229,46.2748,103.5573
1.9055,-0.0984,-0.1479,24.0534,47.1069,98.145
1.8928,-0.0857,-0.144,21.9847,47.4809,92.6336
1.8767,-0.0796,-0.1162,19.5878,47.2137,87.229
1.856,-0.0737,-0.092,17.4122,46.2366,82.0076
1.8389,-0.0674,-0.0842,15.4885,44.4275,77.1985
1.8276,-0.0662,-0.0737,13.7099,42.3588,72.5954
1.8066,-0.0623,-0.0532,12.2137,40.0305,67.9466
1.7761,-0.0569,-0.0359,10.6641,37.5267,63.4656
1.752,-0.0557,-0.0334,9.7481,35.0534,59.626
1.7285,-0.0603,-0.0232,8.8321,32.3588,55.6718
1.697,-0.0654,-0.0073,7.8702,29.2137,52.0458
1.6702,-0.0769,-0.0024,7.2137,25.8931,48.6107
1.6472,-0.0742,0.0195,6.5802,22.3664,45.1908
1.6179,-0.0847,0.0198,6.3588,18.5114,42.3969
1.6025,-0.0813,0.0222,6.4733,14.6565,39.7099
1.5774,-0.0667,0.0278,6.6565,10.7328,37.145
1.5552,-0.0745,0.0391,6.7252,6.6412,34.7099
1.5271,-0.0625,0.0435,7.0458,2.6489,32.7328
1.5098,-0.0645,0.0623,7.1679,-1.313,31.2748
1.4846,-0.0542,0.0508,7.7328,-5.4962,29.5267
1.4714,-0.0559,0.0515,7.9924,-9.2519,28.3206
1.468,-0.0532,0.0417,8.2214,-12.5267,27.374
1.4646,-0.0598,0.0405,8.7481,-15.4733,26.6489
1.4397,-0.0579,0.0371,9.0916,-17.8626,26.1603
1.4395,-0.0498,0.0266,9.8092,-19.8855,25.8092
1.4314,-0.0562,0.0208,10.3588,-21.1145,25.6794
1.4304,-0.0479,0.0139,10.7099,-22.2824,25.3893
1.4341,-0.0513,0.0046,11.1527,-22.7939,25.3969
1.4392,-0.0557,-0.0195,11.771,-22.7099,25.3664
1.4365,-0.0576,-0.0273,12.3893,-22.0763,25.2748
1.4414,-0.0564,-0.0278,13.0076,-21.2443,25.2901
1.4417,-0.0542,-0.0439,14.0534,-19.5802,25.3206
1.4353,-0.0601,-0.0432,14.6718,-17.5649,25.1069
1.4365,-0.0562,-0.0571,15.5954,-15.3817,24.771
1.4426,-0.0605,-0.071,16.2901,-13.3817,24.5802
1.4504,-0.0635,-0.0698,16.8092,-11.0992,24.1221
1.4585,-0.0671,-0.0713,17.5725,-9.2443,23.7863
1.4626,-0.0649,-0.0837,18.084,-7.5191,23.3359
1.4678,-0.0703,-0.095,18.5344,-5.0458,22.8473
1.4834,-0.0623,-0.1121,18.7634,-2.5496,22.0763
1.4878,-0.0598,-0.1174,18.8702,-0.0382,20.9008
1.4915,-0.0603,-0.1079,18.8702,2.3893,19.5496
1.5,-0.0605,-0.1184,18.8931,4.6947,17.9466
1.4951,-0.0557,-0.104,18.5802,6.7557,15.9389
1.4946,-0.054,-0.1008,18.2366,8.3588,13.5878
1.4814,-0.0596,-0.0959,18.0458,9.6107,11.0916
1.4729,-0.0505,-0.0886,17.6489,10.5496,8.0916
1.4617,-0.0513,-0.0925,17.4886,11.3206,5.2595
1.4441,-0.0518,-0.0852,17.3359,11.6794,2.4046
1.4241,-0.0544,-0.0901,17.0458,11.8015,-0.5573
1.3967,-0.054,-0.0864,16.8473,11.8931,-3.5115
1.3816,-0.0569,-0.0852,16.8779,11.7176,-6.3282
1.3518,-0.0583,-0.0898,17.0229,11.5802,-8.9008
1.3171,-0.0625,-0.0881,17.4198,11.0458,-11.2595
1.2793,-0.0625,-0.0923,17.6565,10.2672,-13.3817
1.249,-0.0654,-0.075,17.9389,8.5725,-15.2214
1.2053,-0.0603,-0.082,18.5038,6.7557,-16.3817
1.1721,-0.053,-0.0928,18.5114,5.1756,-17.4886
1.1428,-0.0349,-0.0923,18.7939,3.8168,-18.2824
1.127,-0.0344,-0.0967,18.8702,1.9313,-18.4122
1.0935,-0.0229,-0.1003,18.8779,-0.4198,-17.9924
1.073,-0.0122,-0.0908,19.0305,-2.5954,-17.3817
1.0591,-0.0078,-0.0935,18.626,-4.7939,-16.4122
1.0452,-0.0095,-0.1035,18.2443,-6.7481,-15.229
1.0298,-0.0137,-0.1167,18.1832,-8.4198,-13.9924
1.0081,-0.0129,-0.1248,17.6947,-9.4275,-12.5878
0.9907,-0.0154,-0.1316,17.0992,-10.771,-11.6412
0.9878,-0.0176,-0.1243,16.687,-11.687,-10.2366
0.9712,-0.0049,-0.1421,16.458,-12.7481,-9.1832
0.9622,0.01,-0.1465,15.9389,-13.8473,-7.7863
0.9644,0.0085,-0.1394,15.7405,-14.9542,-6.7557
0.9607,0.0112,-0.137,15.2672,-16.145,-5.6183
0.9585,0.0234,-0.1375,14.9924,-17.3053,-4.0763
0.9668,0.0205,-0.1528,14.687,-18.0076,-2.8015
0.9729,0.0239,-0.1458,14.2443,-18.6107,-1.8244
0.9751,0.021,-0.1372,13.9237,-18.9695,-0.8092
0.9905,0.0354,-0.1465,13.4962,-19.2366,0.4046
0.999,0.0271,-0.1592,13.2214,-19.0992,0.9389
1.0154,0.0359,-0.1619,12.8473,-18.7786,1.7328
1.0237,0.0376,-0.1763,12.4275,-18.3588,2.2443
1.0386,0.0364,-0.1655,11.7863,-17.7023,2.1145
1.054,0.0388,-0.1892,11.4351,-17.1069,1.9771
1.0662,0.042,-0.1921,10.8473,-16.0763,1.7786
1.0813,0.0425,-0.2012,10.3664,-15.0992,1.3588
1.0928,0.0403,-0.1929,9.542,-13.771,0.9847
1.1008,0.0437,-0.1975,9.0305,-12.1603,0.1527
1.1145,0.0432,-0.2041,8.2748,-10.1832,-0.7328
1.1218,0.0454,-0.2095,7.5267,-8.1298,-1.7481
1.1301,0.0486,-0.2141,6.9389,-5.916,-3.0382
1.1357,0.0417,-0.2002,6.2366,-3.3969,-4.1221
1.1423,0.0454,-0.208,5.4275,-0.9542,-5.374
1.1318,0.0449,-0.2053,4.916,1.4885,-6.542
1.1311,0.0376,-0.1816,4.2061,4.3511,-7.8855
1.1252,0.0269,-0.1663,3.7023,6.7099,-9.4275
1.1111,0.0288,-0.165,3.5191,8.5344,-10.4962
1.0984,0.0208,-0.1497,3.313,9.9618,-11.7786
1.073,0.021,-0.1399,3.4885,10.8168,-12.8473
1.0596,0.0208,-0.126,3.7099,11.7252,-13.7099
1.0549,0.0129,-0.1187,4.0763,11.916,-14.2214
1.0417,0.0112,-0.1074,4.2901,12.0458,-14.8092
1.0239,0.0068,-0.1028,4.9924,11.9695,-15.3817
1.0039,0.0132,-0.0913,5.4962,11.8473,-15.3511
0.9849,0.01,-0.0864,6.084,11.855,-15.2977
0.9688,0.0037,-0.0852,6.7786,11.4198,-15.4962
0.9509,-0.0032,-0.0767,7.5115,10.8855,-14.9924
0.9409,-0.0029,-0.0735,8.2824,10.3435,-14.3359
0.9287,-0.0093,-0.0713,8.8702,9.3359,-14.229
0.9192,-0.0007,-0.0776,9.8168,8.2061,-13.542
0.9075,-0.0017,-0.0808,10.5038,7.0305,-12.6336
0.8931,0.0017,-0.0774,11.2595,5.771,-11.9084
0.8875,-0.0024,-0.0823,12.1527,4.4885,-10.855
0.8853,-0.0024,-0.0923,13.0763,2.8702,-9.6336
0.8669,0.0027,-0.0925,13.8092,1.4046,-8.3893
0.8684,0.0034,-0.0901,14.4198,-0.374,-7.1374
0.8713,0.0081,-0.0942,14.8015,-2.0534,-5.5115
0.8684,0.0149,-0.1038,15.4504,-3.6794,-3.7786
0.8704,0.0229,-0.1086,15.8702,-5.2366,-2.0076
0.8796,0.0269,-0.1155,15.9924,-6.8168,-0.6947
0.8779,0.0283,-0.1226,16.374,-7.7176,0.9084
0.8821,0.0332,-0.1477,16.771,-7.9542,2.4046
0.8936,0.0378,-0.1526,16.9847,-8.0763,3.4351
0.9038,0.0427,-0.1467,17.1603,-8.3435,4.7634
0.9124,0.0476,-0.1604,17.2366,-8.8397,5.855
0.918,0.0562,-0.1519,17.2901,-8.9008,6.8092
0.9248,0.0525,-0.1689,17.4275,-8.9313,8.0916
0.9399,0.0564,-0.1646,17.229,-8.5267,8.687
0.9458,0.0662,-0.1792,17.2137,-8.1679,9.2824
0.9583,0.0605,-0.1777,16.9771,-7.542,9.9847
0.9685,0.0598,-0.1802,16.4962,-6.9924,10.4733
0.9753,0.0652,-0.1816,16.0916,-6.5573,10.8702
0.9993,0.0776,-0.1953,15.4427,-5.9008,11.6031
1.0122,0.0752,-0.1875,15.1221,-5.2977,11.9008
1.0154,0.0789,-0.1943,14.3664,-4.458,12.1603
1.0232,0.0759,-0.1904,13.7252,-3.7863,12.855
1.0308,0.0784,-0.196,13.0916,-2.9542,12.7557
1.0435,0.0781,-0.1946,12.1679,-2.1603,12.916
1.0513,0.072,-0.1882,11.2977,-1.2977,13.0763
1.0657,0.0759,-0.1755,10.2748,-0.6489,12.9008
1.0801,0.0725,-0.1802,9.4198,-0.0687,12.6489
1.0881,0.0757,-0.1736,8.542,0.4504,12.2443
1.0942,0.0715,-0.1624,7.771,1.0763,11.5267
1.0984,0.0674,-0.1672,7.0763,1.4504,10.5344
1.1038,0.0735,-0.1624,6.2061,2.1527,9.4962
1.1191,0.062,-0.1465,5.5267,2.6031,8.4275
1.116,0.0566,-0.137,4.9466,2.9542,7.3435
1.1211,0.0459,-0.1404,4.3588,3.0687,6.2214
1.1233,0.0442,-0.1396,3.9618,3.5038,4.855
1.1172,0.0408,-0.1387,3.5878,3.626,3.5573
1.1216,0.0283,-0.1328,3.458,3.5725,2.5115
1.1189,0.0247,-0.136,3.3664,3.145,1.5573
1.1143,0.0203,-0.1394,3.2595,2.8855,0.5649
1.1179,0.0173,-0.1428,3.1374,2.6412,-0.374
1.1104,0.0176,-0.147,3.4122,2.1985,-1.1985
1.1055,0.0286,-0.1453,3.2595,2.0305,-1.7176
1.1013,0.0283,-0.1423,2.916,1.4427,-2.2901
1.1045,0.031,-0.1433,2.5954,1.0305,-2.9237
1.0935,0.0273,-0.1523,2.0153,0.4275,-3.0
1.0874,0.0295,-0.1521,1.4809,-0.0611,-3.626
1.0884,0.0198,-0.156,0.9008,-0.6336,-3.8168
1.0842,0.0271,-0.1465,0.2443,-1.2977,-4.0229
1.0811,0.0271,-0.1523,-0.3664,-2.0992,-4.2366
1.0798,0.0215,-0.1504,-0.9466,-2.8397,-4.229
1.0745,0.0261,-0.1433,-1.3511,-3.4733,-4.2824
1.0679,0.0212,-0.1421,-1.8473,-4.1679,-4.4504
1.075,0.0227,-0.144,-1.9542,-5.0153,-4.1756
1.0732,0.0242,-0.1331,-2.2748,-5.7176,-4.2977
1.0715,0.0242,-0.1221,-2.1908,-6.1145,-4.2977
1.0723,0.0251,-0.1216,-2.2137,-6.4351,-4.2443
1.0691,0.0242,-0.1223,-1.855,-6.5191,-4.5038
1.0688,0.0225,-0.1201,-1.5038,-6.3206,-4.1832
1.0569,0.0142,-0.1189,-0.8626,-5.916,-4.687
1.0493,0.012,-0.1208,-0.0992,-5.458,-5.0611
1.0383,0.0117,-0.1238,0.5878,-4.7328,-5.5038
1.0183,0.0122,-0.1274,1.5802,-4.1679,-5.7634
1.0134,0.0122,-0.1248,2.1832,-4.1985,-5.8092
1.0002,0.0112,-0.125,2.7634,-4.1603,-5.2366
0.9893,0.0229,-0.1118,3.2748,-4.7252,-4.5954
0.9883,0.0205,-0.1106,3.5573,-5.6641,-3.5496
0.9856,0.0271,-0.1218,3.6031,-6.1527,-2.0992
0.9841,0.0364,-0.1191,3.6641,-6.6107,-0.3969
0.9849,0.0408,-0.126,3.6412,-6.8168,1.374
0.9907,0.0354,-0.1304,3.2901,-6.4885,3.2061
0.9912,0.031,-0.1348,2.916,-6.2672,5.0916
1.0022,0.0374,-0.1353,2.5802,-5.4885,6.5802
1.0095,0.0403,-0.1389,2.2061,-4.7099,8.1298
1.011,0.0366,-0.1401,1.7863,-4.1756,9.5115
1.0259,0.0354,-0.1394,1.4504,-3.5725,9.9924
1.0305,0.0371,-0.1392,1.2824,-2.9847,10.7634
1.05,0.0271,-0.1267,0.8473,-2.6183,11.1221
1.0588,0.019,-0.1213,0.8092,-2.6412,11.1756
1.0667,0.02,-0.1099,0.5115,-2.5725,11.1985
1.0784,0.0139,-0.0964,0.6031,-2.6183,11.1145
1.0896,0.0117,-0.0886,0.8168,-2.6031,10.542
1.1008,0.0063,-0.0981,0.9313,-2.6107,9.8702
1.1003,-0.0081,-0.1062,1.2214,-2.6565,9.2443
1.1135,-0.0042,-0.0959,1.6107,-2.6718,8.4885
1.1174,-0.0054,-0.0884,1.8473,-3.0611,7.5267
1.1184,-0.0083,-0.0903,2.3893,-3.1832,6.5496
1.1243,-0.0093,-0.0906,2.7405,-3.3817,5.687
1.1306,-0.0127,-0.0916,3.1985,-3.7557,4.8397
1.134,-0.0168,-0.0935,3.458,-4.0229,3.7634
1.135,-0.0095,-0.0889,3.8931,-4.2519,2.8779
1.1389,-0.0164,-0.104,4.0,-4.3435,1.9924
1.1396,-0.0137,-0.1104,4.1832,-4.1069,1.0992
1.1416,-0.0081,-0.1055,4.1069,-3.8015,0.5954
1.1409,-0.0107,-0.1174,4.2901,-3.3817,0.0229
1.136,-0.0129,-0.1125,4.2061,-3.1069,-0.9084
1.1289,-0.0103,-0.1179,3.9771,-2.6336,-1.6107
1.1289,-0.0125,-0.1248,4.0076,-2.0916,-1.9466
1.1223,-0.0146,-0.1182,3.8473,-1.5038,-2.4046
1.1243,-0.0142,-0.115,4.0992,-1.1832,-2.9237
