ax,ay,az,gx,gy,gz
1.4197,0.0007,-0.0908,0.7481,-19.1908,-9.3435
1.4395,-0.0054,-0.0884,0.374,-20.6794,-10.3282
1.4707,-0.0032,-0.0903,0.1985,-21.8397,-11.145
1.501,-0.0115,-0.0911,-0.2519,-22.8626,-12.4656
1.5327,-0.0256,-0.0786,-0.2672,-23.9313,-13.313
1.5427,-0.0217,-0.074,-0.2977,-24.8168,-14.6031
1.5771,-0.0244,-0.075,-0.4885,-25.4962,-16.0687
1.6108,-0.0291,-0.083,-0.0611,-26.0763,-17.8015
1.6487,-0.0408,-0.0728,0.1832,-26.8779,-19.5267
1.6907,-0.0537,-0.0784,0.4351,-27.7252,-21.8779
1.7297,-0.0593,-0.0796,1.0305,-28.4198,-24.229
1.7803,-0.0627,-0.0916,1.2595,-29.542,-26.7481
1.8181,-0.0676,-0.0981,1.7863,-30.687,-29.2137
1.8594,-0.0645,-0.1028,1.8702,-31.5954,-32.3893
1.9067,-0.0645,-0.1084,1.9542,-32.7481,-35.9237
1.9424,-0.0691,-0.1191,1.8015,-33.3969,-39.9924
1.9727,-0.073,-0.1228,1.2672,-33.6336,-44.7557
1.9999,-0.0784,-0.1143,0.8092,-33.7023,-49.9924
1.9999,-0.0757,-0.1062,0.1756,-35.4122,-55.1221
1.9999,-0.0784,-0.1042,-0.1374,-37.6412,-60.7023
1.9999,-0.0747,-0.0732,-1.145,-40.1679,-66.6641
1.9999,-0.0649,-0.0994,-2.0687,-43.0305,-72.9237
1.9999,-0.0586,-0.0945,-3.2137,-45.1145,-79.8321
1.9999,-0.0654,-0.1069,-4.7176,-46.0687,-87.5191
1.9999,-0.072,-0.1174,-6.1527,-46.5802,-94.3588
1.9999,-0.0933,-0.1067,-7.7328,-47.2137,-103.0
1.9999,-0.0955,-0.0974,-9.313,-48.1298,-111.0
1.9999,-0.0986,-0.0881,-10.9847,-49.4351,-118.9924
1.9999,-0.1008,-0.0645,-12.4351,-51.2824,-127.0992
1.9999,-0.0923,-0.0486,-13.6565,-53.5649,-135.0153
1.9999,-0.0981,-0.0195,-14.9924,-56.5573,-142.4809
1.9999,-0.1045,0.0083,-16.4046,-60.3664,-150.2519
1.9999,-0.1155,0.0283,-17.3969,-63.4122,-157.5267
1.9999,-0.1306,0.0386,-18.2061,-66.8779,-164.4046
1.9999,-0.1382,0.0432,-18.7099,-69.5878,-170.7023
1.9999,-0.1514,0.0403,-19.0076,-72.8626,-177.7481
1.9999,-0.166,0.0437,-19.3893,-76.084,-183.9695
1.9999,-0.1729,0.0383,-19.0,-79.1145,-189.9618
1.9999,-0.1785,0.0603,-18.8168,-82.0916,-195.6947
1.9999,-0.1848,0.0298,-18.5038,-83.6031,-201.9924
1.9999,-0.189,0.0256,-18.1679,-84.4504,-208.3435
1.9999,-0.1914,0.0281,-17.4962,-84.458,-214.8092
1.9999,-0.187,0.0164,-17.0534,-83.5115,-222.1145
1.9999,-0.1912,0.0298,-16.7481,-82.5802,-228.7405
1.9999,-0.187,0.0229,-16.1679,-81.3053,-236.3893
1.9999,-0.187,0.0339,-15.6183,-80.3282,-243.7481
1.9999,-0.1919,0.0381,-14.9237,-79.3511,-250.1374
1.9999,-0.1982,0.0198,-14.5573,-77.687,-250.1374
1.9999,-0.1907,0.0322,-13.9618,-76.0916,-250.1374
1.9999,-0.1907,0.042,-13.0992,-74.8397,-250.1374
1.9999,-0.1921,0.042,-12.145,-73.542,-250.1374
1.9999,-0.2014,0.0471,-11.3053,-71.9542,-250.1374
1.9999,-0.196,0.0544,-10.6107,-69.8473,-250.1374
1.9999,-0.2092,0.0493,-9.4122,-67.0916,-250.1374
1.9999,-0.2222,0.0471,-7.9924,-63.5115,-250.1374
1.9999,-0.2202,0.0398,-6.5496,-59.4198,-250.1374
1.9999,-0.2275,0.0303,-4.855,-54.7481,-250.1374
1.9999,-0.2383,0.0239,-2.8092,-49.7557,-250.1374
1.9999,-0.2463,0.0344,-0.7557,-45.084,-250.1374
1.9946,-0.2639,0.0244,1.4275,-40.3969,-250.1374
1.9751,-0.261,0.0278,3.8244,-35.7099,-250.1374
1.9292,-0.2603,0.0095,6.2214,-31.0534,-250.1374
1.8811,-0.262,0.0186,8.9389,-26.5649,-250.1374
1.8281,-0.2593,0.02,11.7176,-21.1603,-250.1374
1.7656,-0.2603,0.0129,14.3817,-16.1985,-250.1374
1.7019,-0.2605,0.0081,16.7481,-11.8931,-250.1374
1.6367,-0.2563,0.0251,19.2061,-7.7252,-250.1374
1.5662,-0.25,0.0129,21.313,-3.7939,-250.1374
1.4941,-0.2405,0.0115,23.5496,-0.1527,-250.1374
1.4233,-0.2241,0.0125,25.9695,3.3435,-250.1374
1.3586,-0.2131,0.0195,28.313,6.5802,-250.1374
1.3013,-0.197,0.0166,30.4427,9.5954,-250.1374
1.2534,-0.1914,0.0305,32.7405,12.458,-250.1374
1.1875,-0.1697,-0.0007,35.1527,15.9771,-250.1374
1.1221,-0.1736,-0.0117,37.3511,18.7557,-250.1374
1.0657,-0.1619,-0.0115,39.3969,20.4656,-250.1374
1.0051,-0.1497,-0.0249,41.0763,21.7176,-250.1374
0.9604,-0.1335,-0.033,42.7405,22.5802,-250.1374
0.928,-0.1189,-0.0596,44.0153,22.4504,-250.1374
0.8948,-0.1021,-0.0615,44.8626,22.2137,-250.1374
0.8638,-0.0688,-0.0737,45.3435,20.9542,-250.1374
0.8647,-0.0547,-0.083,45.5878,19.229,-250.1374
0.8315,-0.0364,-0.0845,45.3588,16.7634,-250.1374
0.8171,-0.0229,-0.1104,44.8168,14.5191,-250.1374
0.8035,0.0051,-0.1042,44.0382,12.0611,-250.1374
0.7896,0.0249,-0.1213,43.0534,10.2137,-250.1374
0.7666,0.0547,-0.1226,41.687,8.1756,-250.1374
0.762,0.0754,-0.1208,40.2214,5.8015,-250.1374
0.7378,0.0818,-0.1238,38.7786,3.1908,-250.1374
0.7373,0.0864,-0.134,37.1527,0.4885,-250.1374
0.7219,0.0906,-0.1128,35.4885,-3.2595,-250.1374
0.6995,0.0837,-0.1113,33.7405,-7.7634,-250.1374
0.6809,0.0845,-0.0854,31.8015,-13.1756,-250.1374
0.6694,0.0881,-0.0579,29.8092,-18.4046,-250.1374
0.6528,0.1042,-0.0415,28.0076,-24.145,-250.1374
0.6382,0.1191,-0.05,26.4351,-30.0,-250.1374
0.6179,0.1296,-0.0466,25.3893,-35.0153,-250.1374
0.593,0.1445,-0.0388,24.7481,-41.1832,-250.1374
0.6128,0.1467,-0.053,24.0229,-46.2672,-250.1374
0.6023,0.1279,-0.0586,23.0458,-48.8321,-250.1374
0.5989,0.1206,-0.0562,22.2824,-50.1221,-250.1374
0.5884,0.1152,-0.064,21.7023,-49.1527,-250.1374
0.5627,0.1179,-0.0674,21.4351,-46.542,-250.1374
0.5315,0.1199,-0.0681,21.7023,-43.2443,-250.1374
0.4849,0.134,-0.071,22.6718,-38.8015,-250.1374
0.4419,0.1321,-0.0613,24.0763,-34.084,-250.1374
0.4065,0.1353,-0.0457,26.2748,-30.0687,-250.1374
0.3445,0.1357,-0.0757,28.9466,-23.855,-250.1374
0.3008,0.1292,-0.0696,31.3435,-18.2214,-250.1374
0.2593,0.1169,-0.0718,33.9008,-13.458,-250.1374
0.2058,0.1052,-0.0618,36.7786,-8.9542,-250.1374
0.1626,0.1284,-0.0742,39.5267,-4.229,-250.1374
0.1113,0.1514,-0.0708,42.5115,0.3511,-250.1374
0.0627,0.1624,-0.0806,45.7863,4.4198,-250.1374
0.0281,0.1853,-0.085,48.7023,8.1221,-250.1374
-0.0034,0.1907,-0.0857,51.8702,11.0992,-250.1374
-0.0522,0.197,-0.0906,54.6641,13.7786,-250.1374
-0.0933,0.2224,-0.1301,57.9466,16.5573,-250.1374
-0.1138,0.2346,-0.1389,60.4046,18.2748,-250.1374
-0.1416,0.2385,-0.1257,62.5725,19.4351,-250.1374
-0.1584,0.2551,-0.1379,64.6565,20.3511,-250.1374
-0.1797,0.2729,-0.1523,66.4351,20.9695,-250.1374
-0.1897,0.291,-0.157,67.8779,20.9542,-250.1374
-0.2046,0.3188,-0.176,69.2061,20.2519,-250.1374
-0.2175,0.3367,-0.1836,70.7405,19.2672,-250.1374
-0.2266,0.3486,-0.1975,71.9542,18.6336,-250.1374
-0.239,0.3633,-0.2319,73.0382,17.8473,-250.1374
-0.2446,0.3669,-0.2322,74.1374,16.8855,-250.1374
-0.2578,0.3638,-0.2563,75.2595,16.0611,-250.1374
-0.2566,0.3782,-0.2798,76.0534,14.8473,-250.1374
-0.2678,0.3794,-0.2898,76.8168,13.5038,-250.1374
-0.2761,0.3804,-0.3157,77.4198,12.5802,-248.3969
-0.2778,0.3987,-0.3318,77.8626,11.9237,-243.8779
-0.2905,0.4136,-0.3489,78.2519,10.8779,-239.8626
-0.2964,0.429,-0.3643,78.5496,9.771,-236.229
-0.3044,0.4253,-0.3625,78.6107,8.3817,-233.458
-0.3181,0.4421,-0.3821,78.6718,6.9389,-231.2443
-0.3335,0.4543,-0.3921,78.2214,5.9771,-229.5496
-0.3474,0.4653,-0.4165,77.7939,4.9008,-228.1908
-0.376,0.4854,-0.4265,77.3206,3.6718,-227.0458
-0.4048,0.4998,-0.4565,76.6565,2.3282,-226.0153
-0.4268,0.5073,-0.4675,75.9389,0.8244,-225.0534
-0.4565,0.5188,-0.481,74.9313,-0.2824,-223.9695
-0.4866,0.5286,-0.4746,73.4733,-2.0916,-222.8931
-0.5037,0.5364,-0.4861,72.2672,-4.2748,-221.145
-0.5322,0.5464,-0.4919,71.0687,-6.9618,-219.313
-0.5698,0.5571,-0.4941,69.3282,-10.4733,-217.0687
-0.6091,0.5747,-0.5188,67.7786,-14.0076,-214.2366
-0.6404,0.5769,-0.5164,66.0916,-18.0916,-210.8855
-0.668,0.5808,-0.5186,64.3588,-22.7557,-207.7634
-0.6841,0.5955,-0.5063,62.1908,-27.6183,-204.0229
-0.7126,0.6035,-0.5212,59.8702,-32.7252,-200.2824
-0.7368,0.6057,-0.532,57.084,-37.4885,-196.2366
-0.7429,0.6135,-0.5535,54.3359,-41.145,-191.4886
-0.77,0.624,-0.5686,51.8015,-44.3206,-187.0382
-0.8047,0.6331,-0.592,49.1374,-47.2901,-182.626
-0.8281,0.6384,-0.5886,46.6489,-50.7634,-177.0916
-0.8428,0.6353,-0.616,43.7939,-54.145,-171.7786
-0.8706,0.6426,-0.613,40.9313,-57.4733,-165.8321
-0.8865,0.655,-0.6323,37.8244,-60.4962,-159.8092
-0.8953,0.6543,-0.6377,34.626,-63.5496,-153.3512
-0.9114,0.6619,-0.6284,31.1756,-66.1985,-147.0076
-0.9192,0.6616,-0.6467,27.4656,-68.6718,-140.1603
-0.9268,0.6658,-0.6514,23.7328,-70.5496,-133.1527
-0.9265,0.657,-0.6621,20.0534,-71.9542,-126.4733
-0.9338,0.6445,-0.6677,16.4122,-72.9084,-119.2977
-0.9397,0.6377,-0.6741,12.7328,-73.084,-111.7786
-0.9407,0.6287,-0.686,9.0229,-72.5573,-104.4885
-0.9331,0.6162,-0.6812,5.4733,-71.7863,-96.3893
-0.9304,0.6155,-0.6821,2.3359,-70.3511,-88.7099
-0.9231,0.616,-0.6733,-0.7328,-68.1679,-81.3282
-0.908,0.6306,-0.6729,-4.2214,-64.0153,-71.0153
-0.9075,0.6428,-0.6602,-7.0458,-60.0687,-63.3817
-0.8989,0.646,-0.6567,-9.3282,-55.5038,-55.687
-0.8967,0.6472,-0.6575,-11.2748,-50.2977,-48.2901
-0.884,0.6455,-0.6658,-12.8702,-44.1527,-41.2672
-0.8723,0.6333,-0.6726,-14.5573,-37.2443,-34.1603
-0.8669,0.6296,-0.6741,-15.7786,-29.7405,-27.7023
-0.8599,0.6233,-0.686,-16.8397,-21.542,-21.2519
-0.8589,0.6216,-0.6975,-17.8626,-13.0687,-14.9847
-0.8481,0.626,-0.7007,-18.916,-4.6641,-8.6794
-0.8452,0.6138,-0.7014,-19.7481,3.9466,-2.1908
-0.8506,0.6118,-0.698,-20.855,11.9389,3.9084
-0.8472,0.6047,-0.7065,-22.1908,19.3969,10.313
-0.8616,0.614,-0.7041,-23.5878,26.2443,16.3817
-0.8621,0.6243,-0.7041,-25.2595,32.7023,23.084
-0.8689,0.6238,-0.7063,-26.9389,38.3359,29.0916
-0.8716,0.627,-0.7048,-28.9466,44.1221,35.1679
-0.873,0.6257,-0.7095,-31.0305,49.8321,41.3664
-0.8823,0.6279,-0.6953,-33.4275,55.2824,47.4046
-0.8972,0.6233,-0.698,-35.855,60.8015,53.2214
-0.906,0.6257,-0.678,-38.6718,66.1221,59.1069
-0.9136,0.6213,-0.6687,-40.9542,71.3053,64.9924
-0.9299,0.6255,-0.6531,-43.1908,75.771,70.5878
-0.9617,0.6182,-0.6245,-45.1756,79.7557,76.3893
-0.979,0.6089,-0.6067,-46.9924,82.9618,82.1298
-0.9878,0.5937,-0.603,-48.3664,85.1221,87.7786
-1.0105,0.5935,-0.5757,-49.8626,85.916,93.5725
-1.0186,0.5876,-0.564,-50.6565,85.2595,99.4046
-1.0313,0.5752,-0.5376,-51.458,83.1756,106.0687
-1.0447,0.5688,-0.5291,-52.1221,80.2214,113.0229
-1.0444,0.5552,-0.5193,-52.8092,76.0458,119.7252
-1.043,0.5532,-0.5005,-53.4809,70.8855,126.8931
-1.0435,0.543,-0.4954,-54.1145,64.9542,133.8092
-1.0315,0.5408,-0.4958,-54.8855,58.3053,140.916
-1.0234,0.5361,-0.4917,-55.7939,51.7634,147.8168
-1.0168,0.5247,-0.4875,-56.6641,44.916,154.2214
-0.9963,0.5156,-0.4832,-57.542,37.687,160.3588
-0.9697,0.5144,-0.4895,-58.2977,30.5573,166.5114
-0.9475,0.5095,-0.479,-59.3588,23.4656,171.8702
-0.9158,0.5,-0.4995,-60.1985,16.9695,176.8397
-0.8816,0.4902,-0.5125,-61.6183,11.3511,181.5802
-0.8555,0.4878,-0.5024,-62.9847,5.3435,186.0153
-0.835,0.4868,-0.491,-63.9618,-0.5954,190.1756
-0.8147,0.4873,-0.4907,-65.0763,-6.3282,193.9389
-0.7913,0.4856,-0.502,-66.3664,-12.5802,197.7863
-0.7664,0.4802,-0.4829,-67.542,-18.8931,201.3435
-0.7339,0.4661,-0.4902,-69.2061,-24.8015,204.6107
-0.7056,0.4485,-0.4907,-70.5725,-30.5496,207.6718
-0.6692,0.4355,-0.4976,-72.4885,-35.4809,210.7252
-0.6311,0.4355,-0.4971,-74.3969,-39.7863,213.4962
-0.5872,0.4463,-0.5044,-76.2214,-43.1985,216.2443
-0.571,0.4451,-0.509,-78.084,-45.3817,218.9542
-0.5354,0.4453,-0.5171,-80.4122,-46.5344,221.6565
-0.498,0.4443,-0.5046,-82.626,-46.7939,224.5038
-0.4585,0.4299,-0.5149,-85.0382,-45.7099,227.3512
-0.4253,0.4285,-0.5125,-87.8702,-43.3206,230.5191
-0.3916,0.4136,-0.5208,-90.5343,-40.145,233.916
-0.3689,0.4121,-0.4966,-92.9542,-36.1908,236.7481
-0.3496,0.4102,-0.4956,-95.0534,-31.5114,239.855
-0.3306,0.4006,-0.4861,-97.5343,-26.1069,243.3282
-0.3062,0.3921,-0.4771,-99.8397,-20.0153,246.6107
-0.2866,0.3804,-0.469,-101.8244,-13.229,250.0992
-0.281,0.3735,-0.4617,-103.8702,-5.7023,250.1298
-0.2778,0.3643,-0.4377,-105.9389,1.7557,250.1298
-0.2766,0.3608,-0.4182,-108.3053,9.3817,250.1298
-0.2686,0.3457,-0.3923,-110.3588,16.9542,250.1298
-0.2769,0.3416,-0.356,-112.2443,24.7481,250.1298
-0.2822,0.3289,-0.3289,-114.4122,32.6489,250.1298
-0.292,0.314,-0.2903,-116.0458,40.6947,250.1298
-0.2952,0.3086,-0.248,-117.7634,48.9847,250.1298
-0.304,0.292,-0.2087,-119.145,57.1603,250.1298
-0.3198,0.2686,-0.1614,-120.1527,65.0229,250.1298
-0.3301,0.261,-0.1426,-121.0534,72.5878,250.1298
-0.3354,0.2358,-0.0918,-121.3664,79.7786,250.1298
-0.3643,0.2046,-0.052,-121.5649,86.8931,250.1298
-0.3757,0.1799,-0.0046,-121.3511,92.9771,250.1298
-0.3967,0.1499,0.0493,-121.0382,98.6947,250.1298
-0.4065,0.1284,0.1067,-120.2824,103.6641,250.1298
-0.4216,0.1069,0.1582,-119.2137,107.2595,250.1298
-0.4382,0.0757,0.2068,-118.0534,109.855,250.1298
-0.4419,0.0684,0.2317,-116.7328,111.1832,250.1298
-0.448,0.0381,0.2854,-114.7634,110.6794,250.1298
-0.4429,0.0051,0.3264,-112.9771,109.2595,250.1298
-0.4365,-0.0371,0.3765,-110.8321,106.5115,250.1298
-0.4272,-0.073,0.4263,-108.1145,102.9542,250.1298
-0.4075,-0.1177,0.4668,-105.3511,97.8779,250.1298
-0.3955,-0.1738,0.5215,-102.2443,90.2901,250.1298
-0.3574,-0.2332,0.583,-98.8015,79.3588,250.1298
-0.3232,-0.2825,0.6433,-94.8779,65.4962,250.1298
-0.3088,-0.3083,0.6677,-90.1603,48.1374,250.1298
-0.2593,-0.3455,0.6958,-85.1298,28.8779,250.1298
-0.1873,-0.3779,0.7039,-79.1908,8.4962,250.1298
-0.1121,-0.4219,0.6841,-71.7939,-13.458,250.1298
-0.0317,-0.4675,0.6619,-64.2595,-32.7328,250.1298
0.0632,-0.5085,0.6294,-56.3969,-51.3817,250.1298
0.1736,-0.5483,0.5898,-48.3359,-69.0,250.1298
0.2915,-0.5676,0.5276,-39.9237,-87.0229,250.1298
0.3396,-0.5767,0.5051,-32.4885,-103.4351,250.1298
0.4539,-0.5879,0.4385,-24.5725,-121.0,250.1298
0.582,-0.5876,0.365,-17.5802,-136.313,250.1298
0.7227,-0.5762,0.2832,-11.4504,-149.4198,250.1298
0.855,-0.5593,0.2014,-6.0229,-160.0458,250.1298
0.9749,-0.533,0.1133,-1.3511,-168.3664,250.1298
1.1011,-0.5015,0.0356,2.5725,-175.1679,250.1298
1.2241,-0.4712,-0.0574,5.8092,-179.855,250.1298
1.2783,-0.4575,-0.0898,7.8168,-182.2137,250.1298
1.384,-0.4336,-0.1545,8.8397,-182.8244,250.1298
1.4866,-0.4014,-0.2146,9.4504,-181.9313,250.1298
1.5632,-0.3716,-0.2488,8.6718,-180.8168,250.1298
1.6411,-0.3503,-0.2869,6.9847,-178.1756,250.1298
1.7078,-0.3247,-0.3215,4.5496,-174.313,250.1298
1.7595,-0.3096,-0.3708,1.7023,-168.2519,250.1298
1.8098,-0.2798,-0.4194,-1.6718,-159.4198,250.1298
1.855,-0.2466,-0.449,-5.2061,-148.4962,250.1298
1.8862,-0.2195,-0.47,-8.9313,-135.9389,250.1298
1.9016,-0.1802,-0.4746,-12.3969,-122.2672,250.1298
1.9148,-0.1599,-0.4646,-16.3206,-108.0305,250.1298
1.9001,-0.158,-0.4307,-19.3664,-94.9695,250.1298
1.8801,-0.1484,-0.377,-22.4733,-79.1756,250.1298
1.8438,-0.1494,-0.3,-25.1908,-66.084,250.1298
1.8113,-0.1694,-0.2434,-26.9924,-54.5344,250.1298
1.7876,-0.1794,-0.1902,-27.4198,-41.8931,250.1298
1.7698,-0.1931,-0.1416,-27.0305,-29.0916,250.1298
1.7212,-0.2161,-0.073,-25.855,-17.8931,250.1298
1.6863,-0.2236,-0.0076,-23.9466,-8.5954,250.1298
1.6516,-0.2349,0.0588,-21.3053,-0.0458,250.1298
1.6335,-0.2341,0.0989,-18.3282,7.626,250.1298
1.6111,-0.2617,0.1729,-14.8626,13.7252,250.1298
1.5967,-0.2791,0.2334,-11.1374,18.9542,250.1298
1.5857,-0.3103,0.2839,-6.9618,22.8321,250.1298
1.5786,-0.3403,0.3296,-2.2748,25.3053,250.1298
1.5854,-0.3706,0.3589,2.9008,27.0382,250.1298
1.5886,-0.406,0.3828,8.3969,27.7481,250.1298
1.5972,-0.4221,0.3916,14.2214,27.2061,250.1298
1.603,-0.4321,0.3989,20.7405,25.7557,250.1298
1.6299,-0.4524,0.407,27.9542,23.8168,250.1298
1.6467,-0.4624,0.4141,34.7252,21.7252,250.1298
1.6733,-0.458,0.4102,41.4122,19.313,250.1298
1.7041,-0.4653,0.3804,48.0382,17.1069,250.1298
1.7412,-0.4607,0.3533,54.5878,15.2214,250.1298
1.7737,-0.4565,0.3171,60.7023,13.9084,250.1298
1.8069,-0.4468,0.2908,66.3969,12.7328,250.1298
1.8384,-0.4453,0.2483,71.2977,11.9008,250.1298
1.866,-0.4395,0.22,76.1069,11.5191,250.1298
1.8977,-0.4243,0.1921,80.4046,10.8931,250.1298
1.9421,-0.4153,0.136,84.1603,10.2595,250.1298
1.9797,-0.4119,0.0874,87.458,10.0916,250.1298
1.9999,-0.3987,0.0371,90.5573,10.313,250.1298
1.9999,-0.386,-0.0225,92.8855,11.1908,250.1298
1.9999,-0.3545,-0.0823,94.5878,12.8397,250.1298
1.9999,-0.3247,-0.1265,95.626,15.0305,250.1298
1.9999,-0.3081,-0.1453,96.4657,17.145,250.1298
1.9999,-0.2844,-0.2036,96.3817,20.1603,250.1298
1.9999,-0.2544,-0.2419,95.8244,23.3206,250.1298
1.9999,-0.2278,-0.2712,94.687,26.2748,244.1527
1.9999,-0.2019,-0.2947,92.5954,28.8244,237.7405
1.9999,-0.1892,-0.3267,90.1221,31.2519,230.3206
1.9999,-0.1614,-0.364,87.4046,33.5573,222.0916
1.9999,-0.155,-0.3984,83.6031,35.8702,213.0916
1.9999,-0.1428,-0.4116,79.5802,37.6947,204.0076
1.9999,-0.1287,-0.426,74.6565,40.2137,193.313
1.9999,-0.1084,-0.4385,69.4275,42.3817,182.229
1.9999,-0.0833,-0.4434,63.6183,44.6183,170.9847
1.9999,-0.0708,-0.4421,56.2137,47.1298,157.0153
1.9999,-0.0542,-0.4336,49.9924,48.6718,145.1374
1.9999,-0.0505,-0.429,43.4656,49.4427,133.7328
1.9999,-0.0305,-0.4229,37.0305,50.4885,121.7252
1.9999,-0.0293,-0.406,30.8168,51.1985,110.229
1.9999,-0.0173,-0.3921,24.7023,51.1069,99.229
1.9999,0.001,-0.3645,19.0,50.8779,88.9466
1.9999,0.0095,-0.3394,13.6412,50.5115,79.4809
1.9999,0.0164,-0.3245,8.9771,49.8015,70.7557
1.9999,0.0269,-0.2969,4.8855,48.3588,62.4198
1.9999,0.0281,-0.2576,1.2901,46.6641,55.6107
1.9999,0.0266,-0.2241,-1.5496,44.542,50.0916
1.9999,0.0144,-0.1931,-3.687,42.3282,45.7023
1.9937,0.0085,-0.1609,-5.3969,39.9084,41.7939
1.9309,-0.0027,-0.1384,-6.8092,37.1603,38.8779
1.8762,-0.0188,-0.1125,-7.5802,34.2977,36.6031
1.8442,-0.0173,-0.1104,-7.9313,31.1756,35.0611
1.7961,-0.0237,-0.0898,-7.9924,28.3511,33.6718
1.748,-0.0156,-0.0647,-8.0229,25.145,32.8321
1.7043,-0.0193,-0.0471,-7.771,22.145,32.4962
1.665,-0.0178,-0.0195,-7.4046,19.542,32.5725
1.6333,-0.019,-0.0032,-6.7328,16.8397,32.9237
1.6074,-0.0212,0.0083,-5.7176,14.0076,33.3893
1.5847,-0.0286,0.0234,-4.626,11.4046,33.8626
1.5581,-0.0303,0.0369,-3.0687,8.2519,34.626
1.542,-0.0344,0.0493,-1.2519,5.4122,35.5802
1.5359,-0.041,0.0469,0.6412,2.6489,36.3511
1.52,-0.0432,0.0686,3.0534,0.2595,37.0458
1.5146,-0.0393,0.0627,5.1985,-1.5649,37.9847
1.511,-0.0366,0.0457,8.0763,-3.145,39.2824
1.5149,-0.0244,0.0569,10.4885,-4.6565,40.4504
1.5215,-0.022,0.0654,13.1145,-5.8779,41.687
1.5237,-0.0205,0.0525,15.6031,-6.855,43.3359
1.5344,-0.02,0.0349,17.9008,-7.5038,44.2824
1.5452,-0.0217,0.0315,19.8321,-7.9771,45.3435
1.5625,-0.0149,0.021,22.084,-8.1832,46.458
1.5874,-0.0149,0.002,23.9771,-8.2061,46.9084
1.6162,-0.0127,-0.0154,25.5878,-7.8779,47.0611
1.637,-0.0005,-0.0327,26.9084,-7.145,46.8168
1.6699,0.0071,-0.0505,27.8321,-6.1832,46.0305
1.696,0.0144,-0.0745,28.7023,-4.6947,44.8397
1.7188,0.0139,-0.0984,29.7099,-2.9466,43.2748
1.749,0.0186,-0.1062,30.2443,-1.3206,41.0076
1.7554,0.0234,-0.1248,30.4122,0.8779,38.3588
1.7759,0.0225,-0.1331,30.5344,3.0458,35.3511
1.7834,0.0281,-0.1597,30.7481,5.2443,32.0687
1.791,0.0298,-0.168,30.6947,7.6031,28.1603
1.7822,0.0276,-0.1863,30.1832,9.7099,24.0916
1.772,0.0312,-0.1943,30.0458,11.916,20.0382
1.7559,0.0276,-0.2043,29.3969,13.5725,15.5344
1.7266,0.0283,-0.2141,28.7557,14.8244,11.2519
1.7148,0.0283,-0.2063,27.8702,15.8244,7.3206
1.6812,0.0349,-0.2114,26.9008,16.458,3.2672
1.6421,0.0359,-0.2219,25.626,16.6031,-0.0382
1.6135,0.0403,-0.2195,24.2672,16.1832,-3.1221
1.572,0.0366,-0.217,22.7863,15.3511,-5.916
1.5356,0.0317,-0.2134,21.1527,14.0,-8.1908
1.5027,0.0293,-0.2234,19.3435,12.7328,-10.0229
1.4648,0.0215,-0.2222,17.6336,11.2824,-11.5878
1.4458,0.019,-0.2168,15.9695,9.4122,-13.0916
1.4224,0.0198,-0.218,14.3817,7.5573,-14.4046
1.3857,0.0117,-0.2222,12.7863,5.6183,-15.145
1.3672,0.009,-0.2195,11.229,3.4427,-16.2519
1.3403,0.0024,-0.2192,9.8855,1.4885,-17.2214
1.3203,-0.0085,-0.2275,8.1603,-1.229,-18.2519
1.2979,-0.0085,-0.2134,7.0076,-3.4046,-19.2672
1.2688,-0.0166,-0.2354,6.0534,-5.3282,-19.8397
1.2502,-0.0193,-0.2288,5.1221,-7.0611,-20.5344
1.2251,-0.0198,-0.2307,4.1145,-8.4962,-21.2901
1.2097,-0.0193,-0.2271,3.1985,-9.8931,-21.3664
1.1855,-0.0178,-0.2271,2.3511,-11.3969,-21.687
1.1785,-0.0122,-0.2231,1.3893,-12.9771,-21.8168
1.1616,-0.0142,-0.2124,0.5573,-14.7099,-21.4809
1.1445,-0.0068,-0.2214,-0.5267,-16.6412,-21.1527
1.1284,-0.0049,-0.2214,-1.5191,-18.4046,-20.855
1.1152,-0.011,-0.2051,-2.3893,-20.1756,-20.4122
1.1025,-0.0081,-0.187,-3.3206,-22.0611,-20.0382
1.1064,-0.0195,-0.1907,-4.1603,-23.6947,-19.4886
1.0989,-0.011,-0.1885,-4.9389,-24.8855,-19.1527
1.0962,-0.0073,-0.1951,-5.4733,-25.1527,-18.855
1.0911,-0.0188,-0.1938,-6.229,-25.2443,-18.6718
1.0857,-0.0139,-0.2002,-6.2824,-24.8321,-19.0458
1.0728,-0.022,-0.197,-6.2595,-24.2748,-19.2672
1.0679,-0.0249,-0.1829,-6.3053,-23.0076,-19.6565
1.0532,-0.02,-0.1682,-5.9389,-22.4733,-19.8931
1.0493,-0.0198,-0.168,-5.7328,-21.8931,-19.8473
1.0315,-0.0161,-0.1538,-5.3206,-21.1832,-19.8015
1.0247,-0.0112,-0.1345,-5.0153,-20.7099,-19.4275
1.0208,-0.01,-0.1199,-4.7405,-20.1756,-19.0305
1.0154,-0.0073,-0.126,-4.3817,-19.6489,-17.9389
1.0095,-0.0024,-0.1113,-4.0305,-18.8092,-17.5114
1.011,-0.0034,-0.1147,-3.6641,-17.7786,-16.7786
1.0039,-0.009,-0.1067,-3.313,-16.3664,-15.6183
1.0127,-0.0068,-0.0996,-2.6794,-14.7939,-15.0
1.0056,-0.0042,-0.0969,-2.3206,-13.1527,-14.3053
1.0032,-0.0068,-0.0798,-1.6641,-11.771,-13.5573
1.0085,-0.0076,-0.0764,-0.687,-10.1527,-12.8779
1.0134,0.0012,-0.0737,-0.084,-8.5267,-12.6641
1.0115,-0.0049,-0.0674,0.7939,-6.771,-12.1679
1.0115,-0.0134,-0.0623,1.771,-5.4656,-11.8779
1.0132,-0.0159,-0.0398,2.6183,-4.0229,-11.4275
1.0237,-0.0181,-0.0454,3.7557,-2.8397,-11.3206
1.0234,-0.0149,-0.0361,4.916,-1.4885,-11.1832
1.0303,-0.0237,-0.0317,5.771,-0.7176,-11.2519
1.0269,-0.0269,-0.0334,6.6565,-0.0916,-11.2901
1.0273,-0.0203,-0.0239,7.7328,0.9466,-11.4198
1.0271,-0.0352,-0.0237,8.6107,1.6183,-11.7557
1.033,-0.0288,-0.0317,9.5115,2.374,-12.6718
1.0234,-0.0315,-0.0388,10.8626,2.8931,-13.4046
1.0149,-0.0383,-0.0383,11.687,3.2672,-14.1374
1.0137,-0.0364,-0.0383,12.8244,3.2443,-14.9618
0.9983,-0.0337,-0.0344,13.7786,3.2672,-15.5573
0.9929,-0.0327,-0.0378,14.5649,2.7863,-15.7328
0.9929,-0.0322,-0.0439,15.3359,2.3664,-16.0076
0.9917,-0.0293,-0.054,15.9389,2.3435,-16.0534
0.9849,-0.0305,-0.073,16.3053,2.0763,-15.626
0.9797,-0.0242,-0.0781,17.0076,2.2748,-15.7481
0.9851,-0.0251,-0.0957,17.4122,2.5267,-15.5496
0.9753,-0.0156,-0.0891,17.5954,2.771,-15.1527
0.9678,-0.0212,-0.1067,17.8015,2.7939,-15.0305
0.9561,-0.0151,-0.1179,17.9084,3.1374,-14.7176
0.9639,-0.0146,-0.1172,17.8931,3.0992,-14.2214
0.9526,-0.0127,-0.1355,17.9084,3.2672,-14.2061
0.9431,-0.0044,-0.1389,17.7405,3.5344,-13.9466
0.9324,-0.0002,-0.1523,17.5344,3.8168,-13.626
0.929,-0.0017,-0.1599,17.0611,3.8855,-13.0992
0.9255,0.0117,-0.1658,16.4962,3.7939,-12.7863
0.9114,0.0176,-0.1682,16.4427,3.9618,-11.9389
0.9092,0.0195,-0.1768,15.7939,3.8092,-11.0076
0.9114,0.0239,-0.1772,15.2061,3.9542,-10.2519
0.9041,0.033,-0.1748,14.4122,3.3511,-9.2214
0.9016,0.0435,-0.1741,13.6489,3.0534,-8.1908
0.9048,0.0527,-0.1772,12.8855,2.6794,-7.1756
0.9084,0.0537,-0.1714,12.1221,2.2748,-6.1603
0.9106,0.0569,-0.1682,11.1298,1.7557,-5.1756
0.9136,0.0679,-0.1741,10.458,1.5344,-4.1679
0.9131,0.0605,-0.1736,9.6489,1.458,-3.4733
0.9197,0.0569,-0.1746,8.9695,1.1985,-2.6489
0.9258,0.0615,-0.1741,8.2061,1.2672,-2.1679
0.925,0.0605,-0.168,7.5954,1.0763,-2.0382
0.9343,0.0671,-0.1624,7.2443,0.9771,-1.5954
0.9309,0.061,-0.1553,7.0534,0.9389,-1.5038
0.9326,0.0649,-0.1436,6.7557,0.6565,-1.2977
0.9434,0.064,-0.1626,6.4198,0.0763,-1.0229
0.9419,0.0579,-0.1453,6.1832,-0.5649,-0.7786
0.9519,0.0676,-0.1487,5.9847,-1.0611,-0.5115
0.96,0.0693,-0.1431,5.5954,-1.5496,-0.1985
0.9614,0.0706,-0.1467,5.1832,-1.8626,0.1527
0.9714,0.0737,-0.1448,4.626,-1.8244,0.4504
0.9783,0.0754,-0.1511,4.4275,-1.8015,1.1832
0.9912,0.071,-0.1565,3.855,-1.5954,1.2901
0.9927,0.0703,-0.1587,3.3359,-1.6565,1.6641
1.009,0.0662,-0.1538,2.8702,-1.4656,1.7252
1.0151,0.0708,-0.1589,2.4351,-1.2977,1.4122
1.0183,0.0671,-0.1599,2.2977,-1.0153,1.1145
1.0181,0.0647,-0.1611,1.8702,-0.9313,0.7939
1.0198,0.0657,-0.1516,1.7481,-0.7328,0.3588
1.0269,0.0657,-0.1536,1.3588,-0.6947,-0.1145
1.0264,0.0642,-0.1431,1.2137,-0.6718,-0.9313
1.0264,0.0583,-0.1375,1.1756,-0.8779,-1.3435
1.0232,0.0605,-0.1375,1.0,-0.9313,-1.3053
1.0244,0.0608,-0.1306,1.0153,-1.0153,-2.0916
1.0164,0.0532,-0.1179,1.0992,-1.2366,-2.3511
1.0168,0.0627,-0.1172,1.1603,-1.3817,-2.2977
1.0183,0.0562,-0.1201,1.2443,-1.7863,-2.626
1.0098,0.0498,-0.1125,1.6336,-2.229,-2.5191
1.0054,0.0469,-0.1089,1.8168,-2.4656,-2.4427
1.0022,0.0513,-0.1055,2.1985,-2.6489,-2.4275
1.0132,0.0496,-0.1016,2.3817,-3.0763,-2.1069
1.0037,0.0518,-0.0999,2.7634,-3.0916,-1.6718
1.0098,0.0408,-0.1062,3.374,-2.9313,-1.6107
1.0015,0.0457,-0.1018,3.7939,-2.4351,-1.1985
0.9995,0.0408,-0.1028,4.3053,-1.9542,-0.9237
1.0063,0.041,-0.104,5.0229,-1.7252,-0.5344
1.0029,0.0374,-0.0991,5.5725,-1.2443,-0.0229
1.0051,0.0383,-0.0981,6.2061,-1.1145,0.3206
1.0037,0.033,-0.1067,6.6947,-0.7863,0.9847
1.0134,0.0349,-0.1118,7.2595,-0.6107,1.7557
1.0127,0.0452,-0.1082,7.9771,-0.1069,2.5725
1.019,0.0459,-0.1179,8.4656,0.6412,3.4962
1.0291,0.0535,-0.1152,9.0534,1.0687,4.3359
1.0393,0.0583,-0.1245,9.3817,1.6794,5.0534
1.0461,0.0505,-0.1191,9.6107,2.5649,5.8244
1.061,0.0547,-0.1396,9.626,3.7405,6.5573
1.0703,0.0496,-0.1421,9.7328,5.2824,6.8397
1.0732,0.0447,-0.1536,9.7023,7.4122,7.3511
1.0867,0.0454,-0.147,9.4504,9.1069,7.6336
1.0906,0.0464,-0.1509,9.3359,10.7405,7.687
1.0916,0.0432,-0.1523,9.3282,12.4504,7.5038
1.0923,0.0447,-0.1448,9.2748,13.9695,7.4656
1.0925,0.0483,-0.1377,9.4733,14.7939,7.3435
1.0913,0.0508,-0.1384,9.542,15.2672,7.1145
1.0916,0.0403,-0.1267,9.4198,15.3817,7.0
1.0911,0.0403,-0.1248,9.4656,15.458,6.7786
1.0872,0.0374,-0.1267,9.4046,15.2443,6.5344
1.0808,0.0337,-0.1243,9.2824,14.9084,6.6565
1.0742,0.0317,-0.126,9.3206,14.7099,6.4046
1.0764,0.0308,-0.1243,8.9389,14.1145,6.4427
1.0696,0.0298,-0.1206,8.8397,13.313,5.9618
1.0583,0.0364,-0.1306,8.5191,12.4427,5.7481
1.0557,0.032,-0.1157,7.9008,11.4275,5.3588
1.0542,0.0312,-0.1204,7.4198,9.6031,4.9695
1.0469,0.0312,-0.115,6.9618,7.7176,4.7328
1.0417,0.0396,-0.1084,6.2519,5.458,4.2214
1.0356,0.0334,-0.1165,5.374,3.2672,3.8397
1.0334,0.0398,-0.1147,4.5725,0.8473,3.542
1.0334,0.0374,-0.1191,3.6336,-1.1069,3.3282
1.0288,0.0374,-0.1191,2.7481,-3.2748,3.1374
1.0254,0.0396,-0.125,2.2977,-4.8244,3.1145
1.0276,0.0342,-0.1208,1.4962,-6.542,2.8855
1.0388,0.0364,-0.1155,0.8702,-7.8168,2.6412
1.0308,0.0332,-0.1187,0.229,-8.6565,2.687
1.0317,0.0249,-0.1279,-0.374,-9.4656,2.687
1.0344,0.0286,-0.1157,-0.7634,-9.8321,2.7328
1.0435,0.0286,-0.1199,-1.1985,-10.1221,2.7405
1.0408,0.0188,-0.1243,-1.5496,-10.1603,3.0076
1.0476,0.0242,-0.1152,-1.8626,-9.7786,3.1832
1.051,0.0198,-0.1111,-2.2672,-9.1985,3.3588
1.0508,0.0081,-0.1052,-2.1221,-8.4885,3.6641
1.0532,0.0059,-0.104,-2.1832,-8.0992,3.7786
1.0544,0.0095,-0.0974,-2.2672,-7.7099,3.7328
