ax,ay,az,gx,gy,gz
1.3953,0.0417,-0.2495,4.3359,18.6489,-13.5573
1.4194,0.0479,-0.239,4.374,14.4122,-16.2672
1.4487,0.0459,-0.2507,4.1145,10.4809,-18.855
1.4678,0.0547,-0.2563,4.3053,7.8092,-21.3511
1.479,0.0664,-0.2485,4.3359,4.1756,-23.9084
1.4915,0.0718,-0.2551,3.8473,0.3969,-26.9084
1.5103,0.0669,-0.2527,3.4809,-2.9924,-29.0153
1.5188,0.0613,-0.2539,2.7939,-5.6641,-31.313
1.509,0.0554,-0.252,2.0687,-7.8702,-33.5878
1.5244,0.0701,-0.2776,1.2443,-10.1985,-34.9466
1.5388,0.0625,-0.3213,0.8244,-11.1756,-36.229
1.5576,0.0667,-0.2905,0.8092,-13.5649,-37.5267
1.5581,0.063,-0.2903,0.9237,-17.1756,-37.7863
1.5742,0.0706,-0.2859,0.6336,-19.9924,-37.3893
1.5964,0.0796,-0.3115,0.687,-21.6947,-37.1298
1.5879,0.0825,-0.291,0.8168,-23.8168,-36.5115
1.5918,0.064,-0.2683,0.7405,-27.1908,-36.2977
1.5632,0.0264,-0.1914,0.5954,-35.0534,-37.8779
1.5454,0.0247,-0.1885,0.8244,-43.2519,-40.1221
1.5894,0.0344,-0.2375,1.3282,-47.4733,-41.7099
1.6042,0.0342,-0.2734,1.8092,-48.2748,-42.855
1.625,0.0188,-0.2922,2.542,-47.2443,-44.7405
1.6555,-0.0134,-0.3635,2.626,-43.6947,-46.374
1.6792,-0.0232,-0.4692,2.1908,-37.4504,-49.3053
1.7141,-0.012,-0.5254,1.3817,-28.6565,-53.0229
1.7412,-0.0122,-0.6104,0.2901,-19.7863,-57.2901
1.7644,0.0017,-0.6541,-0.9771,-8.2443,-62.9466
1.8125,0.0098,-0.6589,-1.6794,3.3282,-69.3588
1.874,0.032,-0.6707,-2.4351,15.9542,-75.1603
1.9121,0.0356,-0.6777,-3.1908,29.771,-81.1756
1.9478,0.0588,-0.6458,-3.7786,41.6718,-87.3664
1.9617,0.0791,-0.6094,-4.2519,51.2748,-95.3053
1.9836,0.0874,-0.5781,-4.3817,59.7099,-100.7863
1.9999,0.0952,-0.5754,-4.0534,67.3282,-107.9542
1.9999,0.0945,-0.5591,-3.5802,73.8397,-115.0916
1.9999,0.0803,-0.5354,-3.3969,79.0458,-123.0153
1.9999,0.073,-0.5227,-2.7939,83.5802,-129.9847
1.9999,0.0681,-0.522,-3.1221,87.1679,-136.542
1.9999,0.0488,-0.5007,-3.313,90.8702,-145.7328
1.9999,0.0476,-0.4731,-3.8473,92.7176,-153.0
1.9999,0.0486,-0.4473,-4.5573,93.5115,-159.1374
1.9999,0.0618,-0.4338,-5.6031,93.6412,-165.2519
1.9999,0.0652,-0.427,-6.6107,92.7481,-170.8244
1.9999,0.0686,-0.4106,-7.916,91.1832,-177.2443
1.9999,0.0728,-0.3833,-9.4427,88.4885,-183.2214
1.9999,0.0835,-0.3528,-11.1527,85.0229,-188.8321
1.9999,0.0786,-0.3252,-13.3435,80.6412,-194.2748
1.9999,0.0784,-0.2935,-15.626,75.687,-199.6107
1.9937,0.0801,-0.282,-17.8931,70.0534,-204.916
1.9868,0.0803,-0.2561,-20.3359,63.771,-210.4427
1.981,0.084,-0.2361,-22.4962,56.9237,-215.8702
1.979,0.0859,-0.2285,-24.7634,49.5191,-221.1756
1.9746,0.0854,-0.2036,-26.9618,41.2061,-226.3588
1.9622,0.0798,-0.1814,-29.3359,32.7634,-231.9618
1.9521,0.0728,-0.1624,-31.5191,23.7634,-237.2824
1.9385,0.0684,-0.1438,-33.6794,14.3053,-243.1069
1.9399,0.0625,-0.1243,-35.6489,5.0992,-248.8015
1.9448,0.0566,-0.1072,-37.8168,-3.458,-250.1374
1.9507,0.0479,-0.0999,-40.1374,-11.6641,-250.1374
1.9602,0.0493,-0.1001,-42.1069,-19.1374,-250.1374
1.9561,0.0449,-0.0864,-43.8168,-26.1985,-250.1374
1.9692,0.0522,-0.0835,-45.0382,-33.1145,-250.1374
1.9753,0.0442,-0.0752,-45.916,-39.0534,-250.1374
1.9751,0.0295,-0.0881,-46.4122,-44.2977,-250.1374
1.9832,0.0239,-0.094,-46.7939,-48.7252,-250.1374
1.9878,0.0127,-0.092,-46.8779,-52.5191,-250.1374
1.9999,0.0024,-0.0945,-46.7634,-54.8626,-250.1374
1.9912,0.0017,-0.0828,-47.0458,-56.2214,-250.1374
1.9958,-0.0059,-0.0859,-46.9771,-56.9389,-250.1374
1.9999,-0.0103,-0.0918,-46.8397,-57.2977,-250.1374
1.9999,-0.0149,-0.0691,-46.6718,-57.5802,-250.1374
1.9999,-0.0322,-0.0737,-46.1756,-58.0076,-250.1374
1.9999,-0.0378,-0.0598,-45.7863,-58.5878,-250.1374
1.9999,-0.051,-0.0515,-45.2443,-59.3511,-250.1374
1.9999,-0.0571,-0.0452,-44.3664,-59.1756,-250.1374
1.9999,-0.0635,-0.0454,-43.4809,-58.4733,-250.1374
1.9999,-0.0745,-0.0417,-43.0,-56.8244,-250.1374
1.9999,-0.0869,-0.04,-42.2137,-54.5344,-250.1374
1.9999,-0.1011,-0.0579,-41.5496,-50.2824,-250.1374
1.9999,-0.1035,-0.0449,-41.0229,-44.9008,-250.1374
1.9999,-0.1121,-0.0222,-40.7481,-39.7252,-250.1374
1.9999,-0.1035,0.0073,-40.1985,-34.8244,-250.1374
1.9999,-0.0918,0.0396,-39.855,-30.6565,-250.1374
1.9999,-0.0894,0.0522,-39.1298,-26.6565,-250.1374
1.9854,-0.0994,0.0583,-38.1832,-23.0458,-250.1374
1.9702,-0.1023,0.063,-36.8702,-20.0916,-250.1374
1.9343,-0.1125,0.0603,-35.458,-17.0,-250.1374
1.8955,-0.1306,0.0483,-33.2672,-13.2061,-250.1374
1.8538,-0.1401,0.0454,-31.1374,-8.8168,-250.1374
1.7964,-0.1487,0.0261,-28.7557,-4.1221,-250.1374
1.7483,-0.1521,0.0159,-25.9084,-0.0763,-250.1374
1.6907,-0.147,0.0005,-22.8473,3.9542,-250.1374
1.6267,-0.1677,0.0085,-18.7786,6.5496,-250.1374
1.5601,-0.1733,-0.01,-15.3435,7.6565,-250.1374
1.5002,-0.1687,-0.0085,-12.0305,7.313,-250.1374
1.4299,-0.1716,-0.0198,-9.1908,6.4198,-250.1374
1.3616,-0.1902,-0.0107,-6.3664,4.5954,-250.1374
1.2935,-0.167,-0.0225,-3.6794,2.4733,-250.1374
1.2329,-0.1482,-0.0449,-1.1374,0.7786,-250.1374
1.1746,-0.1396,-0.062,1.5344,-0.9695,-250.1374
1.1311,-0.262,-0.032,5.1221,-3.4962,-250.1374
1.0725,-0.3567,-0.0085,10.542,-3.916,-250.1374
0.9558,-0.1846,-0.0264,15.8702,-5.916,-250.1374
0.9243,-0.0574,-0.041,21.6031,-8.2672,-250.1374
0.8804,0.0261,-0.1257,26.313,-6.145,-250.1374
0.7812,-0.062,-0.1616,30.2443,0.2824,-250.1374
0.6672,-0.0452,-0.0942,33.1985,4.3206,-250.1374
0.6689,-0.0012,-0.1851,34.8473,7.6718,-250.1374
0.6902,-0.0317,-0.3547,37.2214,11.6718,-250.1374
0.6157,-0.0649,-0.3552,38.6947,13.3817,-250.1374
0.4851,-0.0967,-0.3865,40.5954,14.5878,-250.1374
0.3838,-0.0303,-0.3936,41.9924,14.4733,-250.1374
0.3193,0.0271,-0.3972,43.4809,11.4962,-250.1374
0.2219,0.0347,-0.4055,44.8092,10.084,-250.1374
0.1289,0.0835,-0.3813,45.1145,8.9084,-250.1374
0.0737,0.1309,-0.3628,44.9237,6.0992,-250.1374
-0.0322,0.1331,-0.2827,44.2061,3.7939,-250.1374
-0.0989,0.1619,-0.3269,42.3969,1.8168,-250.1374
-0.1611,0.1721,-0.3506,40.1908,0.855,-250.1374
-0.238,0.1797,-0.3569,37.5191,0.6641,-250.1374
-0.2981,0.1885,-0.3638,35.0076,0.3588,-250.1374
-0.3733,0.2183,-0.3787,32.6718,-0.4885,-250.1374
-0.4431,0.2495,-0.3572,30.6641,-3.2595,-250.1374
-0.4963,0.2695,-0.3569,28.771,-5.6336,-250.1374
-0.554,0.2876,-0.3552,26.8321,-7.4122,-250.1374
-0.6331,0.291,-0.2446,24.8779,-8.9695,-250.1374
-0.6819,0.2988,-0.2275,22.9084,-10.855,-250.1374
-0.7041,0.3145,-0.2454,21.0458,-12.4275,-250.1374
-0.7385,0.345,-0.2415,19.6641,-14.5573,-250.1374
-0.7612,0.3748,-0.2415,18.0,-16.0153,-250.1374
-0.7754,0.3994,-0.2661,16.771,-16.0,-250.1374
-0.7937,0.4082,-0.2742,15.1069,-15.3588,-250.1374
-0.8196,0.436,-0.2854,13.4885,-13.8779,-250.1374
-0.8433,0.4414,-0.2444,12.4351,-11.9008,-250.1374
-0.8655,0.4575,-0.2407,10.9008,-8.9618,-250.1374
-0.8884,0.4717,-0.2092,9.2366,-6.0382,-250.1374
-0.8875,0.4937,-0.2244,7.9237,-2.542,-250.1374
-0.8853,0.5183,-0.1938,6.6412,0.0763,-250.1374
-0.8945,0.5371,-0.1731,5.9237,2.5115,-239.1374
-0.8896,0.5452,-0.1707,4.7863,4.3588,-228.7023
-0.8723,0.55,-0.1663,3.8168,5.1069,-218.084
-0.8538,0.5525,-0.1384,3.1908,4.9771,-207.626
-0.8594,0.5515,-0.1206,2.3206,3.9389,-198.1679
-0.8337,0.5432,-0.1194,1.7634,2.374,-188.9466
-0.8057,0.5361,-0.1062,1.7939,0.1985,-179.8626
-0.7668,0.533,-0.1199,1.8015,-2.2214,-171.4122
-0.731,0.5244,-0.1418,2.2443,-4.4198,-161.4198
-0.6829,0.5127,-0.176,2.9466,-5.3817,-153.8702
-0.6387,0.5032,-0.2085,3.626,-5.9008,-147.0305
-0.5889,0.5117,-0.2361,4.3206,-4.8702,-140.3435
-0.5457,0.5037,-0.2595,4.7939,-3.4504,-134.6718
-0.4944,0.5,-0.2715,4.9542,-1.9008,-129.3053
-0.4421,0.5063,-0.2815,4.916,-0.2137,-124.916
-0.3975,0.5181,-0.2959,4.6107,1.5573,-120.9389
-0.3845,0.522,-0.2983,4.0534,3.0076,-117.3817
-0.3457,0.5244,-0.2937,2.9847,4.7557,-114.5038
-0.3127,0.5293,-0.3008,2.3206,6.4885,-113.229
-0.2917,0.5193,-0.3057,0.8397,8.1832,-111.7634
-0.2686,0.5073,-0.3132,-0.7405,9.5191,-111.6412
-0.2493,0.4956,-0.3098,-2.3435,10.2977,-112.1603
-0.2402,0.491,-0.3027,-4.2824,10.3053,-112.7634
-0.218,0.4768,-0.282,-6.0076,9.4275,-114.0534
-0.218,0.4778,-0.2739,-7.5344,7.3206,-115.5878
-0.2007,0.4851,-0.2688,-9.4046,3.5115,-117.0153
-0.1858,0.4976,-0.2485,-10.7557,-1.7863,-118.8779
-0.1816,0.4895,-0.2241,-11.9389,-7.9466,-119.9237
-0.1648,0.4812,-0.2346,-13.1374,-14.3893,-121.4046
-0.1621,0.4763,-0.2388,-13.9771,-20.3893,-123.0611
-0.1572,0.4868,-0.2363,-15.1069,-25.8092,-124.8244
-0.144,0.4817,-0.2415,-15.7481,-30.5496,-126.9847
-0.1318,0.4854,-0.2446,-16.5038,-34.9695,-129.1679
-0.1333,0.4897,-0.2493,-17.0763,-38.4885,-131.7176
-0.1255,0.4893,-0.2483,-17.4809,-41.2366,-134.3664
-0.1252,0.4846,-0.2393,-17.8015,-43.1985,-136.916
-0.1245,0.489,-0.2268,-17.9084,-44.3435,-139.4198
-0.1309,0.4941,-0.2205,-18.0687,-45.2824,-141.9695
-0.136,0.4885,-0.2068,-18.5496,-45.9084,-144.4504
-0.1501,0.498,-0.199,-18.542,-46.313,-146.8931
-0.1479,0.511,-0.1716,-18.6031,-46.5038,-149.2977
-0.1558,0.509,-0.1685,-18.7176,-46.8015,-151.3512
-0.1558,0.5176,-0.1572,-18.7328,-46.8015,-152.7786
-0.1721,0.5249,-0.1326,-18.7939,-45.626,-154.5191
-0.1792,0.5322,-0.1221,-18.5267,-44.2443,-155.771
-0.1909,0.5325,-0.1167,-18.229,-42.4733,-156.5114
-0.2056,0.5322,-0.1079,-17.8244,-40.3893,-156.9237
-0.2112,0.5288,-0.1047,-17.1527,-38.0229,-157.0992
-0.2354,0.5139,-0.1013,-16.5878,-35.084,-156.5725
-0.2434,0.5146,-0.1008,-15.6336,-31.9466,-155.8092
-0.2563,0.5222,-0.1011,-14.7252,-27.9847,-154.9695
-0.2795,0.5208,-0.0925,-13.7557,-23.687,-153.2824
-0.3152,0.5417,-0.0916,-12.6412,-19.542,-151.4504
-0.3381,0.5532,-0.0723,-11.5115,-14.8702,-149.6794
-0.377,0.5627,-0.0662,-10.145,-10.4809,-147.2595
-0.4041,0.5796,-0.0566,-8.8779,-6.3511,-145.0382
-0.437,0.5845,-0.0483,-7.1832,-3.0,-142.2061
-0.4648,0.5945,-0.0339,-5.9618,0.1527,-138.8244
-0.4788,0.6079,-0.0293,-4.5725,2.2672,-135.0229
-0.5073,0.6218,-0.0273,-3.5344,3.916,-131.3282
-0.5264,0.6204,-0.0222,-2.0687,4.4809,-126.9466
-0.5508,0.6333,-0.0232,-0.8168,3.8168,-121.8473
-0.5706,0.647,-0.0188,1.1756,2.4809,-114.8244
-0.5852,0.667,-0.0115,3.0382,0.5954,-108.4504
-0.5952,0.6697,-0.0183,4.7099,-1.7252,-102.5038
-0.6072,0.6812,-0.0208,6.4275,-4.313,-96.3359
-0.6035,0.6877,-0.0369,8.4809,-6.8855,-90.3206
-0.6113,0.697,-0.0364,10.1679,-9.2595,-84.4733
-0.6116,0.7053,-0.0391,11.9542,-11.5115,-78.0992
-0.6074,0.7112,-0.0479,13.2672,-12.9466,-72.7405
-0.5962,0.7136,-0.0581,14.8168,-13.9542,-67.3969
-0.584,0.7129,-0.0522,16.4351,-14.0916,-62.0763
-0.572,0.7251,-0.0693,17.6641,-13.771,-57.6718
-0.5703,0.7278,-0.0789,18.855,-12.5115,-53.2443
-0.5598,0.7319,-0.0718,20.1679,-10.3588,-49.3588
-0.5601,0.7351,-0.0608,21.3282,-8.5954,-46.0458
-0.54,0.7388,-0.074,22.1527,-6.6489,-42.7176
-0.5327,0.7324,-0.0706,23.0305,-4.9695,-39.5191
-0.5161,0.741,-0.0637,23.6489,-3.9466,-36.7328
-0.5059,0.7495,-0.0754,24.4809,-3.1679,-34.3817
-0.5027,0.7539,-0.075,25.0076,-2.687,-32.0687
-0.4907,0.7581,-0.073,25.6183,-3.0,-30.1756
-0.4902,0.7605,-0.0769,26.3969,-3.6565,-28.1679
-0.4897,0.7571,-0.0886,26.9466,-4.5878,-26.4351
-0.4749,0.7559,-0.0801,27.3588,-6.1527,-25.0229
-0.4702,0.7551,-0.0864,27.855,-8.6565,-23.8702
-0.4592,0.7502,-0.0967,27.9313,-11.2214,-22.374
-0.4507,0.7468,-0.0889,28.1221,-14.3435,-21.0458
-0.4309,0.7544,-0.0959,28.0611,-18.2443,-19.8855
-0.4226,0.7607,-0.1086,28.2443,-22.4046,-18.5344
-0.4045,0.7761,-0.1111,28.2672,-26.1756,-17.2214
-0.3982,0.7759,-0.1152,28.2061,-29.9618,-15.855
-0.3906,0.7864,-0.1414,28.3206,-32.6641,-14.9389
-0.3872,0.7947,-0.1533,28.5344,-34.7786,-13.8168
-0.3706,0.7981,-0.1685,28.3359,-35.5038,-12.6031
-0.3616,0.7971,-0.189,28.145,-35.8931,-11.2748
-0.3457,0.8076,-0.2075,27.9237,-35.1374,-9.8321
-0.3403,0.8162,-0.2239,27.7023,-34.3359,-8.7786
-0.3276,0.8298,-0.2271,26.9771,-32.7786,-7.6107
-0.3213,0.834,-0.2266,25.9771,-30.7939,-5.7099
-0.3159,0.8381,-0.2283,25.4886,-28.8931,-4.374
-0.3101,0.854,-0.2283,24.6107,-26.6794,-2.9084
-0.304,0.864,-0.2334,23.5802,-24.2977,-1.1603
-0.302,0.8755,-0.2351,22.6107,-22.374,0.374
-0.302,0.8809,-0.2419,21.5344,-20.0611,2.2214
-0.3069,0.8923,-0.2329,20.3817,-18.3511,4.0458
-0.3057,0.9031,-0.2322,19.3588,-16.7863,5.9008
-0.3022,0.9055,-0.2217,18.5038,-15.6336,7.7863
-0.3088,0.9111,-0.23,17.5649,-14.4198,9.7176
-0.2944,0.9124,-0.2285,16.8092,-13.6794,11.8779
-0.2996,0.9165,-0.2349,16.3817,-13.3206,14.145
-0.3054,0.9189,-0.2434,15.8626,-13.3817,16.4656
-0.2886,0.917,-0.2378,15.5802,-13.7786,18.687
-0.2886,0.9255,-0.238,15.7023,-14.6183,21.1298
-0.2783,0.9338,-0.2361,15.626,-15.5649,23.3664
-0.2744,0.9385,-0.2397,15.8397,-16.4733,25.7328
-0.2698,0.948,-0.2458,15.7634,-16.9389,28.6412
-0.2559,0.9521,-0.2542,16.1603,-17.1679,30.2366
-0.2493,0.9556,-0.2625,16.3206,-16.8397,31.9008
-0.2415,0.9646,-0.2788,16.374,-16.0763,33.5725
-0.2295,0.9636,-0.2803,16.7099,-15.1832,34.916
-0.2197,0.9709,-0.2852,16.8779,-13.8779,35.8092
-0.2134,0.9692,-0.29,16.855,-12.7405,36.9847
-0.1902,0.9775,-0.2834,16.9466,-11.5496,37.9847
-0.1833,0.9893,-0.2881,16.626,-11.1527,38.626
-0.1638,0.9937,-0.2778,16.542,-10.6565,39.5115
-0.1516,0.9973,-0.2717,16.2061,-10.8244,40.2366
-0.1343,1.002,-0.261,15.7328,-11.7863,40.4885
-0.126,1.0029,-0.2546,15.0992,-12.9389,40.8321
-0.1169,1.0015,-0.2366,14.3206,-14.5725,40.9695
-0.0952,1.0034,-0.2285,13.9084,-16.4733,41.0305
-0.074,1.0132,-0.2156,12.8168,-18.2214,40.6489
-0.0491,1.0173,-0.2109,11.8321,-19.7328,40.2824
-0.0337,1.0254,-0.2056,11.5115,-20.9466,39.4962
-0.0122,1.0298,-0.2104,10.626,-22.2061,38.2672
0.0056,1.0266,-0.2002,10.3817,-23.0,37.0916
0.0217,1.0337,-0.1995,10.0382,-23.0382,35.5954
0.0393,1.0396,-0.2102,9.9695,-22.7252,34.2901
0.0679,1.0483,-0.2251,9.9847,-21.4962,32.7023
0.094,1.0396,-0.2383,10.0611,-20.0305,31.229
0.1086,1.0276,-0.2493,9.9237,-17.916,29.8855
0.1252,1.0151,-0.2239,10.1679,-16.9618,27.8779
0.1255,1.0237,-0.2153,10.7863,-17.1603,25.7176
0.1514,1.0359,-0.2158,11.7405,-16.7481,23.0382
0.1538,1.0437,-0.2249,12.3969,-16.5496,20.8702
0.1631,1.0454,-0.2129,12.916,-16.3053,18.3588
0.1694,1.0527,-0.2136,13.7328,-15.1221,15.6718
0.1721,1.041,-0.2095,14.0611,-14.0229,13.4504
0.1672,1.0464,-0.2192,14.3359,-12.916,10.9618
0.1709,1.0544,-0.2334,14.6641,-11.0534,8.687
0.1655,1.05,-0.2346,14.687,-9.0687,6.5573
0.1602,1.0574,-0.2336,14.6031,-7.4504,4.7863
0.1431,1.0498,-0.2344,14.7099,-6.4046,2.8321
0.1394,1.0547,-0.241,14.5802,-5.3893,0.9084
0.1326,1.0588,-0.2314,14.374,-5.2672,-0.7786
0.1125,1.0652,-0.2363,13.9695,-5.3588,-2.687
0.0989,1.0747,-0.2327,13.5802,-5.771,-4.5038
0.0835,1.0759,-0.2478,13.3511,-5.771,-5.9924
0.071,1.0735,-0.2422,13.0687,-6.1221,-7.1298
0.0488,1.0737,-0.2437,12.9008,-6.374,-8.458
0.0374,1.0742,-0.2476,12.4885,-6.2214,-9.5954
0.0283,1.0752,-0.2546,12.4351,-5.9695,-10.1221
0.0098,1.0769,-0.2661,12.1756,-5.2214,-10.855
-0.0054,1.0764,-0.2598,12.1832,-4.7328,-11.6107
-0.0298,1.0793,-0.2578,12.0305,-4.0763,-11.4656
-0.0283,1.0801,-0.2568,12.0687,-3.458,-11.4122
-0.0527,1.0818,-0.2522,12.1527,-3.0992,-10.9618
-0.0728,1.0813,-0.2485,12.6718,-2.7405,-10.1527
-0.0796,1.0825,-0.2434,12.9237,-2.6489,-9.2672
-0.0869,1.0815,-0.2395,13.2748,-2.7328,-8.2214
-0.1074,1.0811,-0.2439,13.8626,-2.9084,-6.4046
-0.1147,1.0859,-0.2356,14.2595,-2.9542,-5.084
-0.1235,1.0769,-0.2351,14.9008,-2.8244,-3.6183
-0.1299,1.0847,-0.2319,15.6794,-2.8855,-2.0382
-0.1379,1.0789,-0.2393,16.0382,-2.9389,-0.2977
-0.1421,1.0789,-0.2358,16.7481,-3.0992,1.0992
-0.1436,1.0762,-0.231,17.4962,-3.626,2.8015
-0.1484,1.0752,-0.2288,18.2443,-4.4351,4.2595
-0.1499,1.0723,-0.2454,19.1374,-5.8092,5.4656
-0.1411,1.0786,-0.259,19.7099,-7.5496,6.9618
-0.1401,1.071,-0.2708,20.4198,-9.6489,8.5191
-0.1409,1.0732,-0.2805,20.7863,-11.6565,9.8702
-0.1301,1.0725,-0.2998,21.1832,-13.9847,10.8931
-0.1292,1.0713,-0.3164,21.2672,-16.1679,12.2748
-0.1204,1.0715,-0.3333,21.0,-17.8015,12.8702
-0.1011,1.072,-0.3494,20.8244,-19.084,13.8015
-0.1003,1.0745,-0.3738,20.1679,-20.2061,14.3053
-0.0906,1.0776,-0.3811,19.1756,-20.7481,14.9924
-0.074,1.083,-0.397,17.8015,-20.8931,15.3664
-0.0671,1.0813,-0.4021,16.5725,-20.9084,15.4504
-0.0498,1.085,-0.4221,15.1145,-20.6107,15.916
-0.0369,1.0891,-0.4248,13.7099,-19.9237,16.1221
-0.0334,1.0901,-0.4402,12.1679,-19.0076,16.4809
-0.0176,1.0984,-0.4485,10.2366,-17.8626,16.7176
-0.0066,1.1072,-0.4531,8.2443,-16.3435,16.6107
0.0032,1.1042,-0.4597,6.4504,-14.0534,16.687
0.0159,1.1008,-0.4692,4.3969,-11.6489,16.6947
0.0125,1.0964,-0.4692,2.2901,-9.0382,16.6412
0.0156,1.0872,-0.4614,-0.0153,-6.7481,16.145
0.0127,1.0793,-0.4553,-2.0076,-5.2748,15.8931
0.0146,1.0654,-0.4307,-4.0763,-4.3893,14.9618
0.0137,1.0681,-0.4287,-5.8473,-3.9313,14.0916
0.0132,1.0681,-0.4092,-7.687,-3.4046,13.2824
0.0166,1.0649,-0.396,-9.4885,-3.1679,12.5115
0.0164,1.0693,-0.3896,-10.9771,-2.8015,11.4962
0.0139,1.0671,-0.3813,-12.4962,-2.0,10.4504
0.0051,1.0662,-0.3677,-13.855,-1.5725,10.0229
0.011,1.0654,-0.3572,-15.0916,-0.5038,9.1374
0.0034,1.0552,-0.3315,-16.3206,0.4733,8.3511
-0.0066,1.0496,-0.3425,-17.0382,1.4962,7.9542
-0.0085,1.043,-0.3264,-17.7176,2.5649,7.3359
-0.0093,1.0369,-0.3132,-18.3282,3.4198,6.8473
-0.0103,1.0361,-0.3032,-18.7405,4.4351,6.3435
