ax,ay,az,gx,gy,gz
1.3762,0.3997,0.1438,23.1145,-6.0,17.2901
1.3984,0.3936,0.1501,22.8168,-4.6031,18.1908
1.406,0.4041,0.1582,21.8473,-2.9084,18.8473
1.4299,0.3945,0.157,21.0611,-0.9847,19.5191
1.4541,0.3909,0.1836,20.0687,0.5115,19.9618
1.4788,0.3762,0.1907,18.6489,2.0611,20.0229
1.5024,0.3669,0.2261,17.4351,3.4198,20.1603
1.5288,0.3467,0.2507,16.1985,4.1145,19.7405
1.5552,0.3425,0.2944,15.0076,4.8855,19.4962
1.5774,0.3113,0.3164,13.8702,5.3588,18.5267
1.5955,0.3005,0.3354,13.0,5.0458,17.542
1.6165,0.2742,0.3623,12.2748,4.4198,15.9084
1.6418,0.2532,0.4114,11.6183,3.1603,13.9847
1.6663,0.2307,0.4702,11.2519,0.9847,12.0
1.7043,0.1963,0.5012,11.0687,-1.7252,9.9771
1.7251,0.1699,0.5486,11.3664,-4.6031,7.3817
1.7393,0.135,0.6038,11.7481,-8.458,4.687
1.7544,0.1079,0.6426,12.0534,-12.7557,1.6107
1.7742,0.0771,0.6895,12.7328,-18.2977,-1.8015
1.7852,0.0664,0.7124,13.7557,-24.7405,-5.2901
1.8018,0.0566,0.7612,15.0229,-31.6794,-8.6107
1.8247,0.0498,0.8176,16.4198,-39.3969,-12.0763
1.8479,0.0491,0.833,18.4809,-47.3511,-15.9389
1.8682,0.0217,0.8774,21.084,-55.3282,-19.6794
1.8975,-0.002,0.8987,23.5191,-62.5649,-23.3511
1.9121,-0.0339,0.9097,26.1221,-69.6336,-27.3359
1.9373,-0.0605,0.9224,29.2672,-76.0,-30.7786
1.9502,-0.0688,0.9229,32.9008,-81.6183,-34.2519
1.9883,-0.0906,0.9263,37.9542,-87.5343,-38.3511
1.9999,-0.1003,0.9221,42.2595,-92.1374,-41.458
1.9999,-0.0916,0.9175,46.6641,-92.458,-44.1756
1.9999,-0.0942,0.9194,51.4809,-94.7863,-47.2519
1.9999,-0.1028,0.9126,56.1908,-95.542,-49.8702
1.9999,-0.1196,0.8933,61.3282,-98.4275,-52.229
1.9999,-0.1348,0.8906,66.0458,-96.3053,-54.5954
1.9999,-0.1494,0.8772,71.0076,-96.3282,-57.0382
1.9999,-0.1555,0.8738,75.7099,-96.2366,-59.1985
1.9999,-0.1663,0.853,81.084,-92.7863,-61.687
1.9999,-0.1794,0.8577,86.1832,-90.9924,-64.2977
1.9999,-0.1865,0.8364,90.7939,-86.2519,-66.5725
1.9999,-0.188,0.821,96.2214,-81.7939,-69.5496
1.9999,-0.2122,0.8083,101.7023,-77.0916,-72.9466
1.9999,-0.2285,0.7935,106.9466,-71.9924,-76.6336
1.9999,-0.2527,0.77,112.3817,-66.5115,-80.458
1.9999,-0.2722,0.7593,116.7939,-61.0076,-85.0916
1.9999,-0.282,0.7456,122.1145,-55.9084,-89.6031
1.9999,-0.2947,0.7468,126.6794,-50.9847,-94.5267
1.9999,-0.3057,0.7339,131.8015,-46.6489,-100.1298
1.9999,-0.3169,0.7271,136.3206,-43.2061,-106.5954
1.9999,-0.3242,0.7119,140.8626,-40.1832,-112.1298
1.9999,-0.3386,0.6943,145.1679,-37.8397,-118.1221
1.9999,-0.3362,0.6924,149.1145,-35.8321,-124.0153
1.9999,-0.3367,0.6689,152.8092,-34.6947,-129.9466
1.9999,-0.3501,0.6658,156.3206,-33.9237,-135.855
1.9999,-0.3481,0.6472,159.6565,-33.5802,-141.7481
1.9999,-0.3567,0.6379,162.4733,-33.7481,-147.2137
1.9999,-0.3618,0.6177,165.145,-34.6947,-152.4504
1.9999,-0.3569,0.5969,167.7023,-35.2366,-157.7939
1.9999,-0.3628,0.5752,170.2672,-36.5038,-162.9008
1.9817,-0.3569,0.5439,172.3817,-37.4962,-167.7099
1.9316,-0.3582,0.5266,174.6488,-38.7405,-171.9237
1.8811,-0.354,0.489,176.9542,-39.6412,-175.9924
1.832,-0.3496,0.4548,179.2137,-40.4733,-180.0153
1.7869,-0.3457,0.4248,181.542,-41.1374,-183.4046
1.7532,-0.3408,0.4104,183.4046,-41.5725,-186.4198
1.71,-0.3455,0.3694,185.3893,-41.6641,-189.4809
1.6592,-0.3433,0.3413,187.0153,-41.7939,-191.8626
1.6067,-0.3428,0.314,188.4962,-41.4656,-193.7557
1.5562,-0.3459,0.291,189.8244,-41.3588,-195.4504
1.5168,-0.3479,0.2544,190.855,-41.5878,-197.0305
1.4661,-0.3423,0.2249,191.7939,-41.4885,-198.2901
1.4087,-0.3416,0.209,191.9618,-41.2824,-199.0382
1.3687,-0.3259,0.1841,192.4886,-41.2366,-200.0458
1.3477,-0.3218,0.1802,193.1374,-41.229,-200.9084
1.2856,-0.3074,0.165,193.5496,-41.0305,-201.626
1.241,-0.3005,0.1355,193.9695,-41.0534,-202.0992
1.1843,-0.2903,0.1077,194.626,-40.8702,-202.9008
1.1365,-0.2852,0.0908,195.3588,-40.7863,-203.626
1.0806,-0.2766,0.0569,195.8244,-41.0611,-204.0153
1.0288,-0.2783,0.0278,196.5267,-41.4198,-204.2748
0.9675,-0.2695,0.009,197.0534,-42.0687,-204.1603
0.9419,-0.2632,-0.0039,197.3435,-43.2519,-203.8168
0.8604,-0.2507,-0.0481,197.4198,-44.5725,-203.1603
0.8052,-0.2327,-0.0725,197.5649,-46.1679,-201.9618
0.78,-0.2324,-0.083,197.7023,-47.7939,-200.4962
0.7051,-0.2156,-0.1182,197.3893,-49.7252,-197.9695
0.655,-0.1985,-0.1526,197.1985,-51.4733,-195.3817
0.6094,-0.1799,-0.1721,196.6947,-53.1756,-192.5267
0.5693,-0.1604,-0.2053,196.5496,-54.6718,-189.3206
0.5503,-0.1609,-0.2219,196.0611,-55.6641,-185.9847
0.5088,-0.1602,-0.248,195.6794,-56.3053,-181.7634
0.4766,-0.1577,-0.2761,195.1374,-56.2519,-177.5191
0.4453,-0.1379,-0.3127,194.5343,-55.8168,-173.0611
0.4224,-0.1316,-0.3374,193.8931,-54.2672,-167.1756
0.3887,-0.1213,-0.3557,193.4198,-52.3664,-161.7481
0.3726,-0.1084,-0.3865,192.5954,-49.8931,-156.3206
0.3477,-0.1023,-0.3931,192.1985,-47.0763,-150.9313
0.3352,-0.0935,-0.4065,191.771,-44.3969,-145.4351
0.3225,-0.0896,-0.4253,191.4122,-41.3588,-140.2366
0.3091,-0.0786,-0.4329,191.1985,-38.7557,-134.9466
0.2927,-0.0598,-0.4395,190.6565,-35.9618,-129.771
0.2876,-0.0547,-0.4385,190.6336,-33.7176,-124.5878
0.2773,-0.0496,-0.4456,190.1679,-31.3664,-119.8321
0.2769,-0.0378,-0.4521,189.9847,-29.5344,-115.0458
0.2722,-0.0327,-0.4507,189.458,-28.0229,-110.542
0.2725,-0.0376,-0.4626,188.9847,-26.9695,-106.5954
0.2703,-0.0271,-0.4631,188.5725,-26.0,-102.7939
0.2534,-0.042,-0.4734,187.9847,-25.6336,-99.8168
0.2551,-0.0515,-0.4612,187.4657,-26.2977,-96.3893
0.2554,-0.0527,-0.4812,186.7557,-27.0611,-94.8168
0.2417,-0.0532,-0.4856,186.0382,-28.145,-94.4504
0.25,-0.0486,-0.5061,185.2595,-29.5344,-92.374
0.2432,-0.0496,-0.5217,184.2672,-32.3893,-89.7405
0.2324,-0.0444,-0.5359,183.4046,-34.4351,-89.1298
0.2183,-0.0371,-0.5461,181.9695,-36.458,-87.7328
0.2092,-0.0457,-0.573,180.9389,-38.3435,-86.9313
0.1921,-0.0352,-0.5957,179.6565,-39.7634,-85.7328
0.176,-0.0393,-0.6245,178.1374,-41.3435,-84.855
0.1536,-0.0337,-0.6509,177.0153,-42.6336,-83.4885
0.1306,-0.0374,-0.6917,175.7176,-43.9237,-82.0
0.1204,-0.0305,-0.7261,174.6947,-45.2366,-80.3817
0.0908,-0.0261,-0.7659,173.1374,-46.2595,-78.5573
0.0747,-0.0173,-0.8079,172.1985,-47.5344,-76.313
0.0576,-0.0122,-0.8425,170.8092,-48.7939,-73.7328
0.0222,-0.0125,-0.8716,169.374,-49.9695,-70.7328
0.0107,-0.0051,-0.9192,167.626,-50.6412,-67.2595
-0.0054,0.0051,-0.9563,165.6794,-51.3588,-63.5725
-0.0208,0.0056,-0.9846,163.1985,-51.5191,-59.6718
-0.0205,0.0122,-1.0088,161.4427,-52.1221,-55.8168
-0.0303,0.0166,-1.0356,159.0382,-52.7939,-51.0305
-0.0273,0.0239,-1.0742,156.5725,-52.9771,-46.8321
-0.0168,0.0303,-1.1147,154.1527,-52.8779,-42.5267
-0.0093,0.041,-1.1414,151.5114,-52.4275,-38.0687
0.0051,0.0476,-1.1843,148.7863,-51.1756,-33.6718
0.0205,0.0422,-1.2144,146.3435,-49.9084,-29.4198
0.0344,0.0452,-1.2417,143.9389,-47.8855,-25.0153
0.054,0.0422,-1.2727,140.8397,-45.0076,-20.1527
0.0764,0.0339,-1.3059,138.6641,-42.3969,-16.2748
0.0986,0.0298,-1.3269,135.7252,-38.7328,-12.4427
0.1355,0.0259,-1.3596,133.1145,-34.9618,-8.5496
0.156,0.0251,-1.386,130.9847,-31.6412,-5.4427
0.187,0.033,-1.4138,128.6107,-27.7634,-2.6641
0.2185,0.0234,-1.4441,125.9771,-23.7786,-0.4351
0.24,0.0183,-1.4661,123.7481,-20.3511,1.9084
0.2725,0.002,-1.4917,120.0153,-16.7939,3.771
0.2979,-0.0071,-1.5051,117.771,-13.6718,5.687
0.3159,-0.012,-1.5203,115.6031,-11.4885,7.0611
0.3479,-0.0063,-1.5422,111.0916,-9.5267,8.5267
0.374,-0.0093,-1.5696,108.0305,-7.8321,9.313
0.4026,-0.0105,-1.5916,104.687,-6.3053,9.6641
0.4358,-0.0085,-1.6189,100.9618,-4.9008,9.6489
0.4568,0.0012,-1.6484,97.1069,-3.9542,9.1908
0.4907,-0.0051,-1.6709,92.9695,-3.1298,7.6031
0.5112,-0.0083,-1.6926,88.4198,-2.3511,6.0153
0.5315,-0.0056,-1.7161,83.7405,-2.0305,3.9237
0.5435,0.0044,-1.7327,78.4351,-1.9771,1.3511
0.554,0.002,-1.7607,72.9313,-2.2366,-1.4656
0.5659,0.0056,-1.78,67.7252,-2.5878,-4.374
0.5688,0.0015,-1.7991,61.626,-3.1374,-6.9466
0.5745,0.0049,-1.8164,55.3588,-4.2748,-9.7099
0.5713,0.0051,-1.833,49.0534,-5.8244,-12.7099
0.5696,0.0002,-1.855,42.8015,-7.2901,-15.145
0.5698,-0.0083,-1.8657,36.2137,-9.145,-17.2748
0.5664,-0.0015,-1.8701,30.0229,-10.4275,-19.2901
0.5588,-0.0127,-1.8855,23.2137,-11.9466,-21.0992
0.5464,-0.0171,-1.908,16.6336,-13.2137,-22.4046
0.5388,-0.0186,-1.9275,10.6031,-14.0382,-23.3359
0.53,-0.0369,-1.9299,4.4351,-14.7405,-24.313
0.5139,-0.0469,-1.9417,-1.5649,-15.4885,-25.0687
0.5151,-0.062,-1.9358,-7.1985,-16.5344,-25.4656
0.5032,-0.0688,-1.9404,-12.6947,-17.7481,-25.2214
0.491,-0.0688,-1.9438,-17.6107,-19.4733,-25.2443
0.4866,-0.0752,-1.9409,-22.9313,-22.0229,-24.687
0.4817,-0.0771,-1.9414,-27.5878,-24.7176,-24.145
0.4922,-0.073,-1.9497,-31.9084,-28.5573,-23.2595
0.5,-0.0747,-1.9478,-36.1603,-32.6641,-22.4809
0.5159,-0.0872,-1.9761,-40.4427,-37.1221,-21.3588
0.5312,-0.1008,-1.9917,-44.8779,-42.0916,-20.2595
0.5566,-0.1096,-2.0,-49.3893,-47.1527,-19.855
0.5859,-0.1135,-2.0,-54.4733,-52.1145,-19.2061
0.6035,-0.1106,-2.0,-59.8092,-56.7023,-18.687
0.6257,-0.1104,-2.0,-65.3664,-61.2214,-18.6183
0.6528,-0.0937,-2.0,-71.3588,-65.687,-18.687
0.6799,-0.0835,-2.0,-77.9237,-69.8931,-19.0611
0.6995,-0.0752,-2.0,-84.8015,-74.0992,-19.687
0.7173,-0.0693,-2.0,-91.8168,-77.9466,-20.7328
0.7412,-0.062,-2.0,-99.3435,-81.6947,-21.1603
0.7644,-0.0684,-2.0,-106.8244,-84.8321,-21.5496
0.7715,-0.0564,-2.0,-114.7176,-88.2443,-22.1985
0.802,-0.0537,-2.0,-122.687,-92.5649,-22.313
0.8467,-0.0518,-2.0,-132.6794,-92.6107,-22.084
0.8716,-0.0598,-2.0,-140.0153,-94.5954,-22.1908
0.9048,-0.0647,-2.0,-147.1679,-95.2443,-21.9847
0.9202,-0.0667,-2.0,-154.7023,-96.6107,-21.7176
0.9744,-0.0801,-2.0,-162.9618,-95.8168,-21.7405
1.0085,-0.0896,-2.0,-171.145,-92.5267,-21.9847
1.0356,-0.0972,-2.0,-178.3359,-90.0916,-22.2443
1.0693,-0.1067,-2.0,-185.5573,-84.0763,-22.9237
1.1028,-0.1096,-2.0,-193.0153,-78.3511,-24.1832
1.1379,-0.1228,-2.0,-199.4275,-73.0,-25.0305
1.1606,-0.1296,-2.0,-206.1908,-66.7023,-26.4198
1.1829,-0.1472,-2.0,-212.5954,-60.0763,-27.8397
1.1953,-0.1643,-2.0,-219.084,-53.7176,-29.5344
1.2039,-0.167,-2.0,-225.3282,-47.2977,-31.7023
1.2112,-0.1833,-2.0,-231.8168,-41.6718,-34.0916
1.2161,-0.1843,-2.0,-237.9466,-36.2672,-36.626
1.2129,-0.2024,-2.0,-244.3053,-30.6183,-39.8397
1.2065,-0.2246,-2.0,-250.1374,-25.374,-42.5496
1.188,-0.2395,-2.0,-250.1374,-20.8168,-45.2672
1.1702,-0.2617,-2.0,-250.1374,-16.3053,-47.9847
1.1426,-0.2788,-2.0,-250.1374,-12.0916,-50.6718
1.1243,-0.2891,-2.0,-250.1374,-8.6794,-53.0382
1.0845,-0.3066,-1.9795,-250.1374,-6.1527,-55.2901
1.0461,-0.3135,-1.9087,-250.1374,-4.7099,-57.4046
1.0017,-0.3135,-1.825,-250.1374,-5.1908,-59.0305
0.9585,-0.2991,-1.7312,-250.1374,-7.5802,-60.4198
0.9143,-0.281,-1.6377,-250.1374,-11.4427,-61.6489
0.876,-0.2642,-1.5396,-250.1374,-16.8244,-62.8931
0.8416,-0.25,-1.4639,-250.1374,-23.3588,-63.3969
0.8276,-0.2422,-1.415,-250.1374,-30.3282,-64.1221
0.7891,-0.2366,-1.3347,-250.1374,-37.8397,-64.4504
0.7605,-0.2341,-1.2571,-250.1374,-45.8168,-64.1145
0.7383,-0.2214,-1.1768,-250.1374,-54.1069,-63.8473
0.7119,-0.217,-1.1133,-250.1374,-63.0611,-63.1985
0.6912,-0.2087,-1.0371,-250.1374,-72.5878,-62.3359
0.675,-0.2007,-0.9846,-250.1374,-82.1985,-61.3282
0.6602,-0.2024,-0.9258,-250.1374,-93.6565,-60.4275
0.6587,-0.2036,-0.8958,-250.1374,-102.0611,-58.6336
0.645,-0.1926,-0.8535,-250.1374,-112.5267,-57.0916
0.6428,-0.1909,-0.8257,-250.1374,-122.1374,-55.3435
0.6343,-0.1838,-0.7778,-250.1374,-130.8015,-53.7328
0.6309,-0.1758,-0.7454,-250.1374,-139.1832,-52.084
0.6348,-0.1772,-0.7031,-250.1374,-147.2595,-49.9847
0.6323,-0.177,-0.678,-250.1374,-154.9008,-48.0916
0.6404,-0.1714,-0.636,-250.1374,-162.1756,-46.084
0.6655,-0.1646,-0.6021,-250.1374,-168.6718,-43.5573
0.6768,-0.1736,-0.5898,-250.1374,-173.8168,-41.1908
0.6968,-0.1799,-0.5779,-250.1374,-176.9695,-38.5038
0.7354,-0.178,-0.5569,-250.1374,-177.1908,-35.8626
0.7795,-0.1851,-0.5522,-250.1374,-174.5038,-32.7328
0.8257,-0.2046,-0.5632,-250.1374,-168.145,-29.855
0.8601,-0.239,-0.5542,-250.1374,-158.5038,-26.8855
0.8928,-0.2576,-0.5647,-250.1374,-147.1832,-24.2901
0.9207,-0.2869,-0.5537,-250.1374,-131.3969,-21.3817
0.9404,-0.3086,-0.5261,-250.1374,-116.4962,-19.3817
0.9448,-0.3196,-0.51,-250.1374,-102.4046,-17.9695
0.957,-0.3064,-0.4885,-250.1374,-85.6718,-16.3435
0.95,-0.3057,-0.4727,-250.1374,-69.7252,-15.1756
0.9431,-0.2944,-0.45,-250.1374,-55.687,-14.1298
0.9285,-0.2786,-0.4209,-250.1374,-41.9695,-12.9084
0.9011,-0.2493,-0.3931,-250.1374,-27.9771,-12.2595
0.8748,-0.2126,-0.3687,-250.1374,-15.4885,-11.8397
0.8638,-0.1909,-0.3501,-250.1374,-4.7405,-11.5191
0.8247,-0.1663,-0.3193,-250.1374,6.7863,-11.1298
0.7849,-0.1223,-0.2922,-250.1374,16.084,-11.3053
0.7407,-0.092,-0.2539,-250.1374,24.6489,-11.2214
0.6912,-0.0583,-0.2219,-250.1374,31.9084,-11.3817
0.6362,-0.0276,-0.1833,-250.1374,38.1603,-11.4198
0.5869,0.0098,-0.1384,-250.1374,42.8015,-11.1527
0.52,0.0251,-0.0857,-250.1374,45.9924,-10.9847
0.4658,0.042,-0.0217,-250.1374,47.8168,-10.4122
0.4321,0.0469,0.0051,-250.1374,48.1527,-9.687
0.3669,0.0454,0.0674,-250.1374,47.0382,-8.9771
0.3164,0.0413,0.1357,-250.1374,44.6412,-7.7099
0.2715,0.0469,0.197,-250.1374,41.4427,-6.1527
0.2202,0.0464,0.2852,-250.1374,37.8244,-4.313
0.1794,0.0405,0.3853,-250.1374,32.8397,-2.4427
0.1396,0.0515,0.4795,-250.1374,27.0153,-0.7557
0.106,0.0598,0.5757,-250.1374,20.5878,0.5344
0.0928,0.0498,0.6331,-250.1374,13.5802,2.2672
0.0652,0.0378,0.7415,-250.1374,6.6031,3.8321
0.0354,0.0085,0.8335,-250.1374,-0.6412,5.1221
0.0232,-0.021,0.9294,-250.1374,-7.5573,6.3282
0.0044,-0.0505,1.0303,-250.1374,-14.9542,8.1679
0.0002,-0.0967,1.1226,-250.1374,-21.6031,9.8779
0.0066,-0.1318,1.2146,-250.1374,-27.4198,12.1069
0.0083,-0.1646,1.3042,-250.1374,-32.5191,15.145
0.0132,-0.1831,1.3511,-250.1374,-36.9313,17.916
0.0322,-0.2122,1.4683,-250.1374,-40.5725,21.6031
0.0481,-0.2466,1.5657,-250.1374,-42.8855,25.2366
0.0835,-0.2883,1.6802,-250.1374,-43.4351,28.9847
0.1169,-0.3247,1.7983,-250.1374,-43.1603,33.1527
0.1519,-0.3535,1.9189,-250.1374,-41.9313,37.542
0.198,-0.3794,1.9999,-250.1374,-39.8931,41.1298
0.2468,-0.3843,1.9999,-250.1374,-37.4809,43.8092
0.335,-0.3784,1.9999,-250.1374,-34.1908,46.7634
0.3586,-0.4023,1.9999,-250.1374,-28.4656,49.3359
0.3884,-0.4551,1.9999,-250.1374,-21.458,50.3588
0.4348,-0.4861,1.9999,-250.1374,-14.6718,51.2061
0.4783,-0.5334,1.9999,-250.1374,-7.7786,51.0382
0.5127,-0.5815,1.9999,-250.1374,-0.4122,50.0305
0.5417,-0.6133,1.9999,-250.1374,5.7176,49.3282
0.5598,-0.6423,1.9999,-250.1374,11.458,48.0992
0.5701,-0.6589,1.9999,-250.1374,16.8931,46.5191
0.573,-0.6655,1.9999,-250.1374,22.3817,45.4122
0.573,-0.6843,1.9999,-236.1679,27.374,44.3893
0.5706,-0.6899,1.9999,-218.8321,32.4427,43.458
0.5625,-0.7026,1.9999,-195.8931,39.5115,42.9008
0.5491,-0.7209,1.9999,-176.9237,44.0611,43.3053
0.5251,-0.7124,1.9999,-158.0076,47.0611,43.1756
0.4932,-0.7202,1.9999,-138.4351,49.0611,43.0534
0.4551,-0.7151,1.9999,-118.9924,49.3969,43.1145
0.4365,-0.7036,1.9999,-98.0,49.0305,43.7099
0.3953,-0.7109,1.9999,-78.2137,48.3511,44.5344
0.3511,-0.7192,1.9999,-58.3053,46.1985,45.5267
0.3079,-0.7134,1.9999,-39.0687,43.2137,46.6641
0.2957,-0.7156,1.9999,-21.7176,40.3588,48.1069
0.2517,-0.7063,1.9999,-2.6412,36.3588,50.4046
0.207,-0.6819,1.9999,14.7176,31.1908,52.4656
0.1755,-0.6611,1.9999,31.3282,24.7786,54.542
0.1458,-0.6484,1.9999,47.0534,17.2901,57.2672
0.1104,-0.6284,1.9999,62.0992,9.6641,59.9847
0.093,-0.6218,1.9999,75.8244,1.5573,62.542
0.0833,-0.6118,1.9999,88.5343,-6.7176,65.4427
0.0771,-0.5979,1.9999,100.8015,-14.2519,68.3817
0.0696,-0.584,1.9999,111.7099,-21.6031,71.6641
0.0767,-0.5774,1.9999,122.4504,-28.229,74.4809
0.0806,-0.5735,1.9999,131.6336,-34.3435,78.1069
0.0823,-0.5691,1.9999,141.5114,-39.6641,81.5267
0.0937,-0.5601,1.9999,150.4733,-44.4275,84.7481
0.1069,-0.5601,1.9999,158.9389,-48.1679,88.5038
0.1194,-0.5627,1.9999,167.2672,-51.4809,91.5649
0.1372,-0.5623,1.9999,175.2137,-53.916,95.1069
0.1519,-0.5652,1.9999,182.6947,-55.3206,98.9542
0.1716,-0.5703,1.9999,190.8397,-56.3435,103.0
0.1978,-0.5854,1.9999,198.3588,-56.1221,106.4809
0.2185,-0.5972,1.9999,205.4427,-54.9618,110.374
0.249,-0.5928,1.9999,212.5954,-53.0305,114.4427
0.2773,-0.6072,1.9999,219.1832,-50.3359,118.0763
0.2927,-0.6113,1.9999,225.7023,-47.2595,121.3511
0.321,-0.6277,1.9595,231.9695,-44.8321,124.5878
0.3259,-0.6323,1.9282,237.5267,-42.0458,127.4046
0.3479,-0.6416,1.8748,243.8244,-39.1221,129.855
0.3569,-0.6577,1.8184,249.1756,-36.8626,132.2214
0.3657,-0.6653,1.7627,250.1298,-34.3817,134.3359
0.3718,-0.6753,1.7241,250.1298,-32.1374,136.0153
0.366,-0.6826,1.6738,250.1298,-29.8779,137.7405
0.3555,-0.696,1.6326,250.1298,-27.9313,139.4122
0.3511,-0.707,1.5911,250.1298,-26.1374,141.1374
0.3437,-0.7139,1.5479,250.1298,-24.6489,143.0687
0.3376,-0.7207,1.5173,250.1298,-22.7634,145.1679
0.3181,-0.7351,1.4778,250.1298,-20.458,147.4427
0.2947,-0.7605,1.4312,250.1298,-18.1756,150.1145
0.2771,-0.7861,1.3809,250.1298,-15.7634,153.1603
0.2603,-0.8145,1.3403,250.1298,-13.3664,156.4809
0.2556,-0.8545,1.2842,250.1298,-11.3664,160.6336
0.2498,-0.8845,1.2251,250.1298,-9.7176,165.0916
0.2546,-0.9199,1.1563,250.1298,-8.1221,170.3893
0.26,-0.9375,1.1279,250.1298,-7.2672,175.0534
0.2815,-0.9592,1.0388,250.1298,-6.6412,180.8397
0.3169,-0.988,0.9741,250.1298,-5.8779,186.6718
0.3591,-1.0112,0.8826,250.1298,-5.0916,192.4733
0.4082,-1.0266,0.7903,250.1298,-4.0076,197.5954
0.4644,-1.0291,0.7063,250.1298,-3.3435,201.3512
0.5315,-1.0337,0.6069,250.1298,-2.8397,203.9008
0.5872,-1.0171,0.5254,250.1298,-2.0229,205.9847
0.6523,-1.0112,0.4272,250.1298,-1.2595,206.626
0.7129,-1.0012,0.3437,250.1298,-1.1221,206.3435
0.7666,-0.9866,0.2617,250.1298,-0.8473,205.5343
0.8184,-0.981,0.1736,250.1298,-0.5573,203.7099
0.8447,-0.9812,0.1372,250.1298,-0.3053,201.6488
0.8887,-0.9653,0.0571,250.1298,-0.0458,198.9389
0.9192,-0.9468,-0.0198,250.1298,0.2901,196.458
0.9526,-0.9255,-0.0937,250.1298,0.542,193.3664
0.9761,-0.905,-0.1467,250.1298,0.9924,190.3588
0.9934,-0.8743,-0.2043,250.1298,1.8092,187.5267
0.9983,-0.8501,-0.2437,250.1298,2.8168,184.8702
1.0125,-0.8374,-0.2786,250.1298,3.8244,182.145
1.0037,-0.8225,-0.3201,250.1298,4.8092,179.7405
1.0037,-0.8186,-0.3418,250.1298,5.6183,178.2214
1.0103,-0.8188,-0.3882,250.1298,7.145,176.5649
1.0022,-0.8093,-0.426,250.1298,8.8244,175.9008
1.0005,-0.8093,-0.4609,250.1298,11.0611,175.7863
0.9922,-0.8108,-0.4888,250.1298,13.7863,175.9847
0.9924,-0.8184,-0.5081,250.1298,16.9237,177.3512
0.9878,-0.8269,-0.5369,250.1298,20.5114,178.855
0.9954,-0.844,-0.5593,250.1298,24.4809,180.5802
0.9919,-0.8657,-0.5662,250.1298,28.145,182.8397
0.9978,-0.8643,-0.5691,250.1298,31.6718,185.9313
1.0071,-0.8723,-0.5876,250.1298,34.6412,189.0763
1.0227,-0.8887,-0.5867,250.1298,36.9084,192.3282
1.0593,-0.916,-0.6162,250.1298,38.1756,196.3435
1.1035,-0.9395,-0.6431,250.1298,38.9389,200.4657
1.1624,-0.9575,-0.6743,250.1298,39.3435,203.8473
1.2341,-0.9719,-0.7295,250.1298,39.2595,207.3893
1.311,-0.9846,-0.7827,250.1298,39.6031,210.2748
1.3506,-0.9873,-0.8191,250.1298,39.2901,212.2977
1.4504,-0.9824,-0.8706,250.1298,39.5496,213.1756
1.5361,-0.9846,-0.9468,250.1298,40.3893,212.8931
1.6345,-0.9824,-1.0066,250.1298,41.5038,211.0534
1.7307,-0.9702,-1.0679,250.1298,43.3206,208.0076
1.825,-0.9553,-1.1206,250.1298,45.0763,203.6718
1.9067,-0.929,-1.1882,250.1298,47.5496,197.771
1.9758,-0.8979,-1.2295,250.1298,50.0229,191.084
1.9999,-0.8684,-1.2673,250.1298,52.2595,183.4886
1.9999,-0.8486,-1.2947,250.1298,54.0,174.9313
1.9999,-0.7988,-1.3245,250.1298,55.2672,165.855
1.9999,-0.7585,-1.3638,250.1298,56.2824,156.3053
1.9999,-0.7231,-1.407,250.1298,56.6947,146.6488
1.9999,-0.698,-1.4453,250.1298,57.2672,137.0153
1.9999,-0.6792,-1.4773,250.1298,57.6641,127.5725
1.9999,-0.6558,-1.5112,250.1298,57.6641,118.2977
1.9999,-0.6338,-1.5396,250.1298,57.2443,109.2137
1.9999,-0.6223,-1.5493,250.1298,56.6794,100.7634
1.9999,-0.6077,-1.5566,250.1298,56.1374,92.8779
1.9999,-0.5872,-1.5696,250.1298,55.6336,85.4351
1.9999,-0.5657,-1.582,250.1298,55.2061,78.0382
1.9709,-0.5425,-1.5796,248.7328,54.5725,72.3206
1.9221,-0.5217,-1.5715,241.8931,53.8855,67.4809
1.8755,-0.5054,-1.554,235.5267,52.7405,63.5954
1.8206,-0.4968,-1.5393,229.9771,51.4733,60.8702
1.7715,-0.498,-1.5291,225.4809,49.7252,58.9084
1.7209,-0.5022,-1.5332,222.2214,47.7405,57.5496
1.6772,-0.5334,-1.5488,220.1908,45.9695,57.1298
1.637,-0.5466,-1.562,218.7023,44.0687,57.8626
1.6223,-0.5542,-1.582,218.2061,42.2443,59.3817
1.593,-0.561,-1.6045,218.7252,40.8015,61.4504
1.5728,-0.5652,-1.6353,219.4657,39.2672,64.0458
1.5544,-0.5408,-1.676,220.2061,37.7634,67.2443
1.54,-0.5417,-1.6973,221.4504,35.6412,70.0687
1.5339,-0.5393,-1.7288,222.6565,32.2901,72.8702
1.5671,-0.5181,-1.7683,223.0229,27.9847,75.1221
1.5715,-0.5234,-1.8289,223.4046,23.0382,76.9313
1.5676,-0.541,-1.8486,224.6107,17.6107,78.5725
1.6167,-0.5027,-1.9055,223.7023,15.6489,82.1603
1.6743,-0.4695,-2.0,220.9542,21.626,86.4046
1.699,-0.4741,-2.0,217.8931,25.6565,90.1145
1.73,-0.4912,-2.0,214.2824,21.229,92.3664
1.7571,-0.4878,-2.0,211.0992,16.8855,93.3435
1.8118,-0.4927,-2.0,207.6412,11.916,94.0076
1.8901,-0.4656,-2.0,203.6641,8.0229,94.5038
1.9612,-0.4519,-2.0,199.1069,9.8931,95.1374
1.9868,-0.4492,-2.0,194.6641,12.9695,95.4275
1.9999,-0.4595,-2.0,188.916,16.9237,94.8626
1.9999,-0.4363,-2.0,182.8855,22.9618,94.0076
1.9999,-0.4148,-2.0,175.4886,29.4198,92.6947
1.9999,-0.3962,-2.0,167.5343,35.1908,90.7405
1.9999,-0.3782,-2.0,158.7481,41.6489,88.1679
1.9999,-0.3513,-2.0,149.2061,48.2061,85.2443
1.9999,-0.3232,-2.0,138.6336,54.0,81.6489
1.9999,-0.3225,-2.0,127.4962,59.4046,77.2748
1.9999,-0.3313,-2.0,117.0,64.771,72.5878
1.9999,-0.3262,-2.0,104.2595,69.5649,67.0076
1.9999,-0.3037,-2.0,91.9618,73.7252,61.4733
1.9999,-0.2744,-2.0,79.6565,77.4504,55.2443
1.9999,-0.2615,-2.0,67.0,80.916,48.0992
1.9999,-0.2737,-2.0,54.1603,83.5038,41.1985
1.9999,-0.2808,-2.0,40.9389,84.6794,33.5725
1.9999,-0.2698,-2.0,27.8244,84.2748,25.3435
1.9999,-0.2729,-2.0,15.0229,82.2748,17.6336
1.9999,-0.262,-2.0,1.9542,78.7328,10.313
1.9999,-0.2546,-2.0,-10.7634,75.0076,3.0458
1.9999,-0.2581,-2.0,-23.4886,71.3053,-3.5267
1.9999,-0.2656,-2.0,-36.6794,66.7405,-9.8397
1.9999,-0.28,-2.0,-48.4351,62.687,-15.1069
1.9999,-0.2949,-2.0,-59.7863,58.7099,-19.6489
1.9846,-0.3044,-2.0,-70.0458,53.7099,-23.458
1.9585,-0.3098,-2.0,-79.5115,49.1908,-26.6489
1.8987,-0.3201,-2.0,-89.2366,44.2824,-29.626
1.8577,-0.3315,-2.0,-97.8092,39.6183,-32.0382
1.8176,-0.3328,-2.0,-106.8931,34.7099,-34.1145
1.7725,-0.3464,-2.0,-114.9695,30.8702,-36.0382
1.7419,-0.3474,-2.0,-122.5267,27.4275,-37.5191
1.697,-0.354,-2.0,-129.4657,24.1145,-38.8015
1.6626,-0.3542,-2.0,-135.9008,21.2443,-39.771
1.635,-0.3506,-2.0,-142.0153,18.9466,-40.7939
1.6062,-0.3501,-2.0,-148.374,16.8626,-41.3817
1.5781,-0.3467,-2.0,-154.4427,15.2595,-41.7786
1.5588,-0.3425,-2.0,-160.4122,13.9084,-41.7023
1.5352,-0.3374,-2.0,-166.7099,13.3817,-41.7176
1.54,-0.3403,-2.0,-172.8321,13.7023,-41.4809
1.5205,-0.3284,-2.0,-178.6183,15.0382,-41.1679
1.5088,-0.3201,-2.0,-184.4122,17.1527,-40.5038
1.5046,-0.3154,-2.0,-189.8168,20.5038,-40.084
1.4946,-0.3076,-2.0,-195.3817,24.1221,-39.9237
1.4917,-0.3096,-2.0,-200.5725,28.3053,-39.5878
1.4888,-0.3047,-1.9807,-205.8779,32.7176,-39.8244
1.4846,-0.3186,-1.9448,-210.7481,37.0916,-40.1756
1.4788,-0.3206,-1.9243,-215.916,41.0076,-40.6412
1.4714,-0.3274,-1.8999,-220.8397,45.1985,-41.5573
1.4629,-0.3325,-1.866,-225.1985,49.458,-42.9924
1.4519,-0.3337,-1.833,-229.7786,53.2748,-44.229
1.4348,-0.3325,-1.7932,-233.916,56.6794,-45.8473
1.4153,-0.345,-1.7603,-238.7939,59.3511,-47.8092
1.3872,-0.3657,-1.7405,-243.7099,61.458,-49.6947
1.3525,-0.3928,-1.7126,-249.1374,62.7481,-51.7634
1.3279,-0.4043,-1.697,-250.1374,62.7176,-54.3053
1.2849,-0.4199,-1.6606,-250.1374,61.8931,-56.0992
1.2454,-0.426,-1.6287,-250.1374,60.1145,-57.6183
1.2039,-0.4299,-1.5801,-250.1374,57.6565,-59.3588
1.1563,-0.4268,-1.5232,-250.1374,54.2672,-60.5344
1.1162,-0.4216,-1.4893,-250.1374,50.8397,-61.3511
1.0574,-0.4336,-1.4426,-250.1374,47.1298,-61.6718
1.0132,-0.4543,-1.4004,-250.1374,42.5878,-61.5038
0.9841,-0.4775,-1.3416,-250.1374,38.2748,-60.626
0.9604,-0.4875,-1.3103,-250.1374,33.2519,-59.4275
0.9292,-0.5068,-1.2588,-250.1374,28.0,-57.6565
0.9011,-0.5154,-1.187,-250.1374,22.7176,-55.6412
0.8787,-0.5393,-1.1321,-250.1374,17.7328,-53.6031
0.8691,-0.5554,-1.0771,-250.1374,12.9466,-51.4198
0.856,-0.5767,-1.0198,-250.1374,8.5725,-49.0534
0.8418,-0.6096,-0.9541,-250.1374,4.3969,-46.4351
0.844,-0.6333,-0.8965,-250.1374,0.7176,-44.5344
0.8357,-0.6401,-0.8623,-250.1374,-2.8168,-42.1603
0.8401,-0.6504,-0.7913,-250.1374,-6.0611,-40.229
0.8433,-0.655,-0.71,-250.1374,-8.9924,-38.3969
0.8486,-0.6541,-0.6226,-250.1374,-12.1069,-36.2443
0.8542,-0.6646,-0.5352,-250.1374,-14.6794,-34.4733
0.8647,-0.6614,-0.4546,-250.1374,-16.8321,-33.145
0.8765,-0.6567,-0.3708,-250.1374,-18.5267,-32.2061
0.8879,-0.6541,-0.2883,-250.1374,-19.7023,-31.374
0.8916,-0.6567,-0.238,-250.1374,-20.687,-30.6794
0.9077,-0.6448,-0.1663,-250.1374,-21.4122,-30.229
0.9158,-0.6455,-0.0889,-250.1374,-21.9466,-29.6107
0.9155,-0.647,0.0242,-250.1374,-22.626,-28.8626
0.9189,-0.6455,0.0574,-250.1374,-23.145,-28.374
0.9172,-0.6406,0.1323,-250.1374,-23.9313,-27.8702
0.9126,-0.6382,0.2161,-250.1374,-25.626,-26.9389
0.9163,-0.6255,0.3147,-250.1374,-27.9695,-26.1527
0.9072,-0.6147,0.4036,-250.1374,-31.1985,-25.3511
0.9109,-0.585,0.5154,-250.1374,-35.2672,-24.1145
0.9033,-0.5659,0.6204,-250.1374,-39.8702,-23.687
0.9006,-0.5537,0.7371,-250.1374,-45.2519,-23.6412
0.9011,-0.54,0.8376,-250.1374,-51.2366,-23.4427
0.906,-0.5405,0.8823,-250.1374,-57.8473,-23.9084
0.9124,-0.5352,1.009,-250.1374,-64.7557,-24.7176
0.9207,-0.5425,1.0994,-250.1374,-71.8473,-25.4046
0.9385,-0.5449,1.1965,-250.1374,-77.8168,-26.0687
0.9678,-0.5479,1.272,-250.1374,-81.7634,-26.4504
0.9827,-0.5667,1.3445,-250.1374,-83.1679,-26.6107
1.0164,-0.5779,1.4204,-250.1374,-82.5725,-26.2824
1.0344,-0.5996,1.4727,-250.1374,-78.4733,-25.687
1.0498,-0.6096,1.512,-250.1374,-71.0916,-24.2977
1.0774,-0.6301,1.5806,-250.1374,-61.7863,-22.3282
1.0918,-0.6482,1.6582,-250.1374,-50.1145,-20.4122
1.0972,-0.6699,1.748,-250.1374,-37.0305,-17.9237
1.1062,-0.679,1.8274,-250.1374,-22.8473,-15.3053
1.1072,-0.6936,1.9075,-250.1374,-8.4504,-12.5802
1.0884,-0.7026,1.9999,-250.1374,5.7557,-9.8092
1.0713,-0.7046,1.9999,-241.6641,19.0763,-6.9237
1.0691,-0.7009,1.9999,-224.8168,31.6794,-4.2137
1.0422,-0.6956,1.9999,-206.9466,42.8473,-1.5344
1.0117,-0.6929,1.9999,-189.6488,51.229,0.8473
0.9805,-0.6846,1.9999,-172.6412,57.0611,3.0305
0.9417,-0.6704,1.9999,-155.8015,60.3435,4.8931
0.9011,-0.6577,1.9999,-139.1603,61.1985,6.9618
0.8706,-0.6501,1.9999,-123.0305,59.4275,8.687
0.8293,-0.6328,1.9999,-107.8473,55.8397,10.1069
0.7996,-0.6179,1.9999,-93.229,50.4427,11.7176
0.7854,-0.6011,1.9999,-79.2137,43.7176,13.6336
0.7627,-0.5762,1.9999,-66.4275,34.9542,15.0916
0.7375,-0.5386,1.9999,-54.0687,25.4809,16.6336
0.7275,-0.5164,1.9999,-42.5954,15.2901,18.7023
0.7275,-0.4863,1.9999,-32.2366,4.9771,21.1298
0.7271,-0.4568,1.9999,-22.3893,-5.1603,23.4198
0.7429,-0.4414,1.9999,-13.0153,-14.9695,25.9466
0.7529,-0.4165,1.9999,-4.7023,-24.2901,28.458
0.7688,-0.4036,1.9902,3.0916,-32.5802,30.6412
0.7954,-0.396,1.8904,11.0687,-39.5267,33.3359
0.8296,-0.374,1.7859,18.6794,-45.7099,36.3588
0.8679,-0.3501,1.6848,25.0687,-49.3817,39.4046
0.9084,-0.3323,1.582,30.7176,-52.3969,41.7176
0.9553,-0.3179,1.4868,36.0382,-55.3206,43.7939
1.011,-0.2944,1.3855,40.5802,-56.7786,46.0305
1.0557,-0.2869,1.2737,44.2977,-57.5496,47.7252
1.0854,-0.2781,1.2244,47.313,-57.4122,49.3282
1.1401,-0.2515,1.1504,50.2137,-56.1832,50.4733
1.1938,-0.2332,1.0562,51.9924,-53.916,51.374
1.2524,-0.2134,0.9873,53.1298,-50.9389,51.5573
1.2969,-0.1951,0.9075,53.7405,-47.8168,50.8092
1.3533,-0.1809,0.8582,54.1221,-45.2595,49.5649
1.3862,-0.1694,0.8228,54.0382,-41.8168,48.0076
1.436,-0.1418,0.7683,52.4885,-36.5115,46.1374
1.4634,-0.1257,0.7224,50.0916,-32.5191,43.3969
1.4868,-0.1152,0.6853,48.1985,-30.1756,39.9466
1.4973,-0.1208,0.6902,47.0687,-30.1679,36.084
1.5107,-0.1226,0.6765,46.1145,-31.6183,31.0916
1.5315,-0.1201,0.6399,45.626,-32.0992,26.7405
1.5117,-0.1223,0.6355,45.5496,-30.8626,22.8473
1.5093,-0.1323,0.6213,46.1221,-29.8015,18.7939
1.5161,-0.1384,0.5879,46.771,-27.313,15.5191
1.5046,-0.135,0.5654,47.4427,-24.4122,12.2366
1.4827,-0.1484,0.5669,48.6718,-22.8702,8.6336
1.4534,-0.1523,0.572,50.3969,-22.8931,5.0153
1.4277,-0.1538,0.5525,52.2595,-23.2824,1.7023
1.4011,-0.1418,0.5273,54.5878,-23.2824,-1.3588
1.3936,-0.135,0.4956,56.5267,-22.5802,-3.9924
1.3525,-0.1221,0.4709,58.6947,-21.4886,-6.2366
1.324,-0.1113,0.4453,60.6641,-20.5954,-8.0611
1.291,-0.1091,0.4177,62.9008,-19.1756,-9.3359
1.2551,-0.115,0.373,65.4809,-17.7023,-9.8855
1.2219,-0.1094,0.3218,68.1374,-15.5573,-9.9008
1.1917,-0.1042,0.2769,70.8321,-13.6641,-9.5573
1.1587,-0.0913,0.2239,73.7786,-11.374,-8.6031
1.158,-0.0791,0.1855,76.8702,-7.9466,-7.0763
1.126,-0.0696,0.1226,79.626,-4.3664,-5.229
1.1113,-0.052,0.0654,82.1756,-0.8931,-3.8855
1.0979,-0.0203,0.0029,83.9466,3.0916,-1.7252
1.0764,0.0083,-0.0522,85.6947,7.2824,0.145
1.0615,0.0415,-0.0916,86.8855,10.8321,2.1527
1.0571,0.0632,-0.1379,87.0687,14.1985,3.5573
1.0498,0.0872,-0.189,86.7557,16.9771,5.1527
1.0405,0.1052,-0.2271,85.6107,19.4962,6.5344
1.0322,0.1189,-0.2534,84.2977,21.5114,7.2748
1.0383,0.1362,-0.292,82.4275,22.9771,8.1527
1.033,0.1555,-0.3142,79.5878,24.0229,8.5725
1.0281,0.1716,-0.342,76.6947,23.7252,8.8626
1.0154,0.2,-0.3435,73.1679,22.9084,8.3053
1.02,0.2219,-0.3569,69.2061,21.1603,7.8473
1.0078,0.231,-0.3604,64.7023,19.2214,6.9466
1.0073,0.25,-0.3738,60.0458,16.8015,6.1069
1.0,0.251,-0.3696,55.5038,14.7786,5.1908
0.9993,0.2556,-0.3733,50.7023,12.0611,4.458
1.0017,0.2595,-0.365,45.7481,9.8015,3.8015
0.998,0.2656,-0.3584,40.7939,7.3435,2.8855
0.9968,0.2673,-0.3547,35.7176,4.9695,1.8779
0.9851,0.2756,-0.3347,31.1603,2.7328,1.374
0.9912,0.2644,-0.3184,26.5496,0.313,0.3511
0.9875,0.2546,-0.2954,22.1298,-1.6718,-0.1069
0.981,0.2498,-0.2883,18.1832,-3.4275,-0.5267
0.9731,0.2395,-0.2693,14.7481,-5.1145,-1.4198
0.9734,0.2378,-0.2351,11.4504,-6.2672,-1.6641
0.9546,0.2249,-0.1956,8.0458,-7.5496,-1.9924
0.9431,0.2051,-0.1709,6.0305,-8.2519,-1.855
0.9666,0.2024,-0.1504,4.145,-7.1908,-1.3817
0.9636,0.1882,-0.113,2.8397,-6.313,-1.0
0.9524,0.1665,-0.0583,2.2137,-7.8702,-1.2748
0.9607,0.1541,-0.0251,2.2137,-9.2824,-1.8702
0.9626,0.1328,0.0,2.2748,-9.8855,-1.9237
0.9636,0.114,0.0117,2.7481,-10.2443,-2.2595
0.9666,0.1057,0.0327,3.626,-9.3817,-2.084
0.9749,0.094,0.04,4.5802,-8.1756,-2.1756
0.9749,0.0803,0.0774,6.2977,-7.145,-1.9313
0.9739,0.0659,0.0908,8.1908,-6.3588,-1.5954
0.9683,0.0635,0.1118,10.4351,-4.9618,-1.0076
0.9612,0.0527,0.1189,12.9542,-2.4427,0.0611
0.9548,0.0447,0.1282,15.8626,-0.4962,0.9542
0.9504,0.0288,0.1443,18.5649,0.4885,1.5191
0.9604,0.0229,0.1565,22.0229,2.2366,2.4351
0.9617,0.0168,0.1348,25.2748,3.8092,2.9618
0.9646,0.0081,0.1299,28.4351,5.3282,3.5267
0.9692,0.0073,0.1289,31.8244,7.542,4.1298
0.9714,0.0017,0.1182,34.8626,9.1298,4.6183
0.9773,0.0068,0.1228,38.3511,11.0382,4.9847
0.9822,0.0032,0.1067,41.3817,12.0534,4.8626
0.9824,0.0051,0.1243,44.2672,13.1145,5.1832
0.9839,-0.001,0.0957,47.0076,13.1679,5.0153
0.9871,-0.01,0.0823,49.4885,12.855,4.8702
0.9834,-0.0071,0.0596,51.4351,12.1069,4.4198
0.9924,-0.0024,0.0344,53.3664,11.458,4.4809
0.9941,0.0027,0.0098,54.8779,10.5038,4.1298
0.9905,0.0171,-0.0098,56.3206,9.4198,3.7939
0.9929,0.0166,-0.0398,57.0153,7.9313,3.8092
0.9924,0.0417,-0.0723,57.374,6.4809,3.3664
0.9958,0.0588,-0.1108,57.1756,5.6412,2.9313
0.998,0.0759,-0.127,56.7863,4.8321,2.626
0.9922,0.0937,-0.1641,56.313,3.7557,2.1069
0.9937,0.1138,-0.1995,54.9771,3.2748,2.3511
0.9878,0.1213,-0.2173,53.8626,3.0,2.2901
0.9858,0.1287,-0.2468,52.0687,2.7099,2.1069
0.9846,0.1426,-0.2698,50.1832,2.9695,2.6183
0.9861,0.1506,-0.2935,48.3206,3.4885,3.2977
0.9802,0.1648,-0.3066,46.313,4.2061,3.9847
0.9814,0.1724,-0.3237,43.7786,4.6031,4.6107
0.9795,0.1729,-0.3262,40.9542,5.1527,5.7023
0.9719,0.1843,-0.3218,38.5649,4.9695,6.5802
0.9761,0.1736,-0.3267,35.6718,4.7328,6.8702
0.9792,0.1765,-0.3269,33.0458,4.4275,7.6794
0.9783,0.1948,-0.3179,30.3511,3.7863,8.2748
0.9851,0.1829,-0.3123,27.4275,2.687,8.3817
0.9915,0.1816,-0.2988,24.8626,1.7634,8.626
0.9961,0.1873,-0.2925,22.3435,0.771,8.6336
1.0034,0.1799,-0.2778,19.8473,0.0534,8.6947
1.0083,0.1738,-0.2661,17.5649,-0.6412,8.6336
1.021,0.1658,-0.2612,15.2977,-1.1603,8.687
1.0293,0.1616,-0.2629,13.771,-1.2519,8.2672
1.0398,0.1436,-0.2393,12.0534,-1.4809,7.9695
1.0552,0.1208,-0.2305,10.6412,-0.9237,8.0076
1.0645,0.1069,-0.2209,9.4427,-0.458,7.8855
1.0715,0.1028,-0.21,8.6489,0.5267,7.5649
1.0813,0.0928,-0.1973,7.9313,1.4275,7.4885
1.0791,0.0796,-0.175,7.6031,2.3664,7.0763
1.0881,0.0701,-0.1584,7.4046,3.3435,6.8015
1.0957,0.0608,-0.1509,7.1527,4.313,6.4351
1.0981,0.0503,-0.1326,7.229,5.3206,6.0992
1.0935,0.0522,-0.1309,7.1679,6.1298,5.5344
1.0942,0.051,-0.1138,7.2672,6.6412,5.1756
1.0913,0.0337,-0.1001,7.5496,6.8626,4.8397
1.0815,0.0237,-0.0764,7.5267,6.542,4.4275
1.0786,0.0208,-0.0581,7.8473,6.1603,4.2214
1.074,0.0107,-0.0239,8.2214,5.1221,3.9847
1.0632,0.0032,-0.0208,8.7481,3.6107,3.2824
1.0552,0.0012,-0.0027,9.3969,1.9924,2.9313
1.05,0.0095,0.0073,9.9466,0.3969,3.0611
1.0432,-0.0027,0.0212,10.5496,-1.1298,3.0534
1.0439,0.0076,0.0229,11.3588,-2.2061,3.2366
1.0308,0.0002,0.0361,12.2748,-4.1527,3.3664
1.0337,0.001,0.0276,13.5573,-6.4275,3.5573
1.0286,-0.0024,0.0283,14.8168,-8.2366,3.7634
1.032,-0.0088,0.0112,16.5954,-9.6641,4.1298
1.0359,-0.01,0.0188,18.2748,-10.4656,4.9542
1.0503,-0.0034,0.0061,19.7405,-9.9924,5.7863
1.0532,-0.0029,0.0032,21.4886,-11.0916,6.4122
1.053,-0.0027,-0.0071,23.3435,-12.4122,6.5954
1.0674,0.0085,-0.0271,25.0763,-12.7786,6.9237
1.0747,0.0078,-0.0454,26.6107,-13.2366,7.5496
1.0969,0.0088,-0.0632,27.9389,-13.1221,7.5191
1.1064,0.0144,-0.0999,29.0382,-12.2824,7.6565
1.1245,0.0229,-0.1128,29.7557,-11.7405,7.6794
1.1497,0.0437,-0.144,29.9313,-9.9695,7.5267
1.1484,0.0469,-0.1558,30.2672,-8.2901,6.916
1.1592,0.0601,-0.1726,30.374,-7.2366,6.0992
1.1797,0.0718,-0.2048,30.2366,-4.8702,5.9618
1.1973,0.0693,-0.2361,29.687,-1.4885,5.3969
1.1931,0.0747,-0.2471,29.0229,0.8702,4.7176
1.2002,0.0811,-0.2778,28.0611,3.8855,3.8855
1.2021,0.0933,-0.2842,26.9313,6.626,3.3435
1.2068,0.0979,-0.2869,25.4733,9.0076,2.5344
1.2078,0.106,-0.292,24.0305,10.4275,1.3282
1.1965,0.1096,-0.3018,22.1221,12.2519,0.3588
1.1973,0.1133,-0.3113,19.9771,13.8092,-0.6183
1.1858,0.1133,-0.3057,17.9847,14.9771,-1.4046
1.1685,0.1106,-0.3118,15.7786,16.0,-2.5878
1.1614,0.1169,-0.3088,13.7099,16.8092,-3.458
1.1497,0.1179,-0.2876,11.5725,17.0763,-4.542
1.1326,0.1086,-0.2773,9.2137,17.1527,-5.1832
1.1179,0.1062,-0.2651,7.1756,16.4351,-6.0763
1.103,0.1101,-0.2473,5.2061,15.542,-6.6412
1.0845,0.1016,-0.2244,3.4962,14.8168,-7.0611
1.0708,0.0996,-0.2104,2.0,13.145,-7.0534
1.0549,0.093,-0.1895,0.4504,10.4198,-7.5802
1.0386,0.0908,-0.179,-0.6794,8.3435,-7.626
1.0181,0.0789,-0.1577,-1.3588,6.084,-7.2366
1.0129,0.074,-0.1367,-1.9237,3.6489,-7.1374
1.0015,0.0686,-0.115,-2.2061,1.3435,-7.0916
1.0012,0.0725,-0.1074,-2.2748,-1.0229,-6.4733
0.9893,0.0615,-0.0972,-2.1069,-3.2977,-6.0229
0.9871,0.0605,-0.0925,-1.9313,-5.1985,-5.4198
0.9902,0.063,-0.075,-1.6794,-7.0382,-4.8321
0.9895,0.0596,-0.0786,-1.1908,-8.2137,-3.8779
0.9873,0.0491,-0.0742,-0.6794,-9.2443,-3.0076
0.9917,0.0432,-0.0671,0.0534,-9.9466,-2.3053
0.9961,0.043,-0.0657,0.771,-10.6641,-1.3359
1.001,0.0359,-0.0603,1.7023,-11.5725,-0.3588
1.0059,0.0405,-0.062,2.6107,-12.3511,0.5267
1.0107,0.0403,-0.0491,3.6489,-13.0534,1.5267
1.0227,0.04,-0.0496,4.7634,-13.5344,1.8931
1.0264,0.0413,-0.0493,5.8168,-13.687,2.6718
