ax,ay,az,gx,gy,gz
1.1494,0.3752,-0.752,-25.4504,-39.9542,-18.1298
1.1611,0.3713,-0.7761,-27.6031,-44.1145,-19.4427
1.1709,0.3684,-0.7908,-29.6031,-47.7481,-20.6794
1.1687,0.3687,-0.8044,-31.916,-51.771,-21.7786
1.175,0.3608,-0.833,-34.0534,-55.9084,-23.2595
1.1794,0.3452,-0.8384,-35.8855,-60.6565,-24.7328
1.1807,0.3386,-0.8547,-37.8702,-65.9313,-26.4427
1.1816,0.3386,-0.8752,-39.8015,-71.3588,-27.8626
1.1831,0.3352,-0.8662,-41.771,-77.8244,-29.3282
1.1833,0.3247,-0.8811,-43.6641,-85.229,-30.771
1.1836,0.3286,-0.8894,-45.4275,-92.8931,-32.5573
1.188,0.3298,-0.8923,-47.2519,-98.8931,-34.6565
1.2,0.3154,-0.9167,-49.6107,-107.0611,-36.542
1.2039,0.3022,-0.9646,-51.8626,-114.3511,-38.2748
1.2061,0.2964,-1.0164,-54.4504,-120.8779,-40.084
1.2205,0.2859,-1.0505,-56.8321,-125.7099,-41.7176
1.2314,0.2925,-1.1011,-59.3435,-129.542,-43.458
1.2456,0.3022,-1.1377,-61.9847,-132.0076,-44.8092
1.2603,0.3074,-1.1772,-64.542,-133.1527,-46.0458
1.2681,0.3103,-1.1899,-66.8397,-132.7557,-47.084
1.283,0.3118,-1.2222,-69.1221,-131.0916,-47.9771
1.2825,0.3208,-1.2747,-71.4809,-128.3206,-48.7405
1.2788,0.3264,-1.3262,-73.687,-123.5115,-49.3817
1.2874,0.3203,-1.3647,-76.1679,-118.0916,-49.8015
1.2866,0.3237,-1.3948,-78.0382,-111.626,-49.5191
1.2837,0.3223,-1.427,-80.0992,-104.4962,-48.8855
1.2808,0.3169,-1.4656,-82.1832,-96.9466,-48.4427
1.2788,0.3208,-1.4927,-84.6183,-87.2748,-47.1298
1.2673,0.3228,-1.5139,-87.374,-76.7176,-45.5649
1.2593,0.3247,-1.5295,-89.9771,-67.1221,-43.9237
1.2458,0.3259,-1.5415,-93.3893,-56.8702,-42.1069
1.2336,0.3315,-1.5481,-96.687,-47.4885,-39.8855
1.2144,0.3425,-1.5452,-101.2748,-36.8779,-37.8015
1.1921,0.3372,-1.5342,-106.2443,-27.6107,-35.8931
1.1741,0.3425,-1.5305,-111.2366,-18.1298,-33.9466
1.1509,0.3552,-1.4956,-116.4275,-10.1298,-32.0611
1.1323,0.3845,-1.4805,-121.687,-3.0382,-30.4733
1.0999,0.3962,-1.4683,-127.0153,3.4733,-28.8626
1.0701,0.4055,-1.4385,-133.0763,9.1908,-27.2977
1.0403,0.4265,-1.407,-138.3435,13.4275,-25.9542
1.02,0.4312,-1.384,-144.0611,16.7863,-24.6718
1.0051,0.4343,-1.3777,-149.916,19.2977,-23.8015
0.9729,0.4475,-1.3511,-155.687,20.9466,-22.6412
0.9495,0.4534,-1.3293,-161.7481,21.6794,-21.9924
0.9258,0.4543,-1.3022,-167.7176,21.9389,-20.9542
0.8979,0.4553,-1.2732,-173.8244,21.5038,-20.0076
0.8872,0.4546,-1.2542,-179.9847,19.8397,-19.229
0.8669,0.4458,-1.2314,-186.3512,17.3359,-18.374
0.8467,0.4468,-1.2024,-192.5954,13.855,-17.3359
0.8423,0.4434,-1.1824,-198.8244,9.9008,-17.0534
0.8271,0.4414,-1.1533,-204.8092,5.0458,-16.5496
0.8179,0.4351,-1.1294,-211.1985,-0.1908,-16.2519
0.804,0.4314,-1.0889,-217.3053,-5.9542,-16.2977
0.791,0.4336,-1.0549,-223.2519,-12.2214,-16.1145
0.7812,0.425,-1.0083,-228.8397,-19.084,-16.4733
0.7866,0.4304,-0.9856,-234.3206,-26.4275,-16.8855
0.7896,0.4397,-0.9639,-239.6183,-33.9466,-17.7786
0.7954,0.4404,-0.9468,-244.4657,-41.687,-18.0992
0.7986,0.4399,-0.9207,-249.1756,-49.3435,-18.5725
0.8079,0.4402,-0.9131,-250.1374,-57.0,-19.3511
0.824,0.4272,-0.8872,-250.1374,-64.4962,-20.3435
0.8442,0.4175,-0.875,-250.1374,-71.6947,-21.0992
0.8584,0.4136,-0.8613,-250.1374,-78.3817,-22.3359
0.8755,0.4048,-0.8408,-250.1374,-84.6183,-23.7786
0.9009,0.4045,-0.8159,-250.1374,-90.4046,-25.3817
0.9109,0.4089,-0.8047,-250.1374,-94.9542,-27.2137
0.9387,0.4106,-0.7695,-250.1374,-100.7405,-29.2443
0.9585,0.4041,-0.7468,-250.1374,-105.3817,-31.1603
0.9814,0.3982,-0.7339,-250.1374,-109.0382,-33.3282
0.9961,0.3843,-0.7078,-250.1374,-112.1069,-35.5649
1.0176,0.3755,-0.7024,-250.1374,-114.6947,-38.2366
1.0273,0.3589,-0.6741,-250.1374,-116.7176,-40.7939
1.0422,0.3462,-0.6528,-250.1374,-118.2824,-44.1374
1.0435,0.3347,-0.6521,-250.1374,-119.6641,-47.0916
1.0496,0.3242,-0.6152,-250.1374,-120.7481,-50.5038
1.0635,0.3157,-0.5874,-250.1374,-121.4122,-54.0763
1.0605,0.3044,-0.5557,-250.1374,-122.2137,-58.1603
1.0671,0.2834,-0.5237,-250.1374,-122.374,-62.0763
1.0667,0.2698,-0.4783,-250.1374,-122.2977,-66.0153
1.0664,0.2432,-0.4448,-250.1374,-121.9084,-69.687
1.0542,0.23,-0.4163,-250.1374,-120.9542,-73.5878
1.0571,0.2026,-0.3606,-250.1374,-119.8626,-77.6947
1.041,0.1975,-0.3113,-250.1374,-119.1603,-81.7939
1.0354,0.1775,-0.2642,-250.1374,-117.9466,-85.8931
1.0186,0.1606,-0.2192,-250.1374,-116.6565,-90.4046
1.012,0.1611,-0.1958,-250.1374,-115.2824,-92.6031
1.0063,0.1377,-0.1582,-250.1374,-113.2366,-95.9695
0.9915,0.1084,-0.1101,-250.1374,-111.0382,-101.2595
0.9788,0.0913,-0.0647,-250.1374,-108.9466,-105.0
0.9592,0.0662,-0.0198,-250.1374,-107.3435,-108.3435
0.9341,0.0432,0.0176,-250.1374,-104.9313,-111.9542
0.9104,0.0391,0.0823,-250.1374,-103.0611,-115.0992
0.8965,0.0425,0.1377,-250.1374,-100.5649,-117.6641
0.8682,0.0515,0.1882,-250.1374,-97.6794,-119.8397
0.8508,0.05,0.22,-250.1374,-93.4351,-121.8779
0.8389,0.0579,0.2603,-250.1374,-89.374,-123.2137
0.8132,0.0571,0.3098,-250.1374,-83.6031,-124.1527
0.782,0.0425,0.3586,-250.1374,-79.5878,-124.3206
0.7524,0.03,0.4033,-250.1374,-76.2595,-123.9237
0.7212,0.0054,0.4548,-250.1374,-73.3053,-123.374
0.6904,-0.0022,0.5007,-250.1374,-70.6336,-121.9695
0.6611,-0.0222,0.5505,-250.1374,-68.5878,-120.542
0.6553,-0.0244,0.5701,-250.1374,-67.1679,-118.3969
0.634,-0.0376,0.6326,-250.1374,-65.7481,-115.9313
0.6089,-0.041,0.679,-250.1374,-65.0458,-113.2519
0.5906,-0.0608,0.729,-250.1374,-64.4122,-110.0992
0.5762,-0.0676,0.7793,-250.1374,-64.1908,-106.7557
0.5605,-0.0642,0.8264,-250.1374,-64.3053,-103.2977
0.5505,-0.0747,0.8691,-250.1374,-64.2824,-99.7176
0.5488,-0.0659,0.9209,-250.1374,-64.7557,-93.9618
0.5449,-0.0657,0.9573,-250.1374,-65.374,-90.5954
0.5471,-0.0625,0.9802,-250.1374,-65.916,-86.7939
0.55,-0.0664,1.0105,-250.1374,-66.1298,-81.7023
0.541,-0.0667,1.0552,-250.1374,-66.7786,-77.1527
0.5479,-0.0652,1.0811,-250.1374,-66.6031,-72.5573
0.5571,-0.0662,1.1106,-250.1374,-66.3969,-67.9847
0.5581,-0.072,1.1401,-244.6031,-66.0,-63.4427
0.5637,-0.0769,1.1597,-238.0992,-65.2443,-59.3817
0.5657,-0.0759,1.1814,-231.0,-64.0153,-55.3588
0.572,-0.074,1.1831,-223.4809,-62.626,-51.8931
0.5845,-0.0728,1.1926,-215.8321,-60.6947,-48.6489
0.603,-0.071,1.1882,-207.5267,-58.7023,-45.5115
0.6206,-0.0657,1.1882,-198.9924,-55.6947,-42.2214
0.6401,-0.0508,1.1731,-190.2366,-52.4198,-39.3588
0.6589,-0.0339,1.1709,-181.3206,-48.9237,-36.3817
0.6863,-0.0142,1.1621,-172.0153,-45.1298,-33.1908
0.7024,0.001,1.1643,-162.8168,-41.084,-30.3664
0.7156,0.0063,1.1533,-153.8931,-36.9695,-27.1527
0.7366,0.0122,1.1416,-145.2824,-33.0153,-23.8168
0.75,0.0232,1.1409,-136.7405,-29.0,-20.6107
0.7632,0.0295,1.1338,-127.8473,-24.8779,-17.2977
0.7654,0.0349,1.1172,-118.542,-20.0305,-13.5725
0.7698,0.0435,1.1125,-111.3206,-16.7176,-10.5496
0.7791,0.0513,1.1094,-104.0,-14.2137,-7.6183
0.7771,0.0647,1.0906,-97.4427,-11.9847,-5.0611
0.7874,0.0696,1.0747,-90.855,-9.9389,-2.771
0.7942,0.0696,1.0696,-85.1374,-8.8931,-0.6718
0.792,0.0835,1.033,-79.0305,-7.6641,1.1145
0.7971,0.0979,1.0193,-73.626,-6.7405,3.0534
0.7986,0.1028,1.0012,-68.8397,-6.3664,4.5191
0.7996,0.114,0.9858,-63.9237,-5.8015,5.7786
0.8105,0.1296,0.9587,-59.4885,-5.5115,6.8092
0.8091,0.1365,0.9419,-55.2443,-5.4427,7.7328
0.8086,0.1462,0.9199,-50.8092,-4.771,8.084
0.822,0.167,0.897,-47.0,-4.0763,8.5878
0.8325,0.1736,0.8708,-43.9008,-3.2519,8.8397
0.843,0.1895,0.825,-40.916,-1.771,8.8168
0.8457,0.2136,0.8123,-38.084,-0.3359,9.0916
0.8589,0.2144,0.7891,-35.458,1.5191,9.4046
0.8552,0.22,0.7612,-32.9466,3.4962,9.4122
0.8611,0.2214,0.7378,-30.9542,5.3588,9.4885
0.853,0.2166,0.738,-29.0611,7.3511,9.2901
0.8479,0.2109,0.7341,-27.229,8.9618,9.1298
0.8428,0.2048,0.7222,-25.9084,10.3359,8.5878
0.8208,0.2021,0.7175,-24.4351,11.3969,7.8244
0.8242,0.2104,0.7104,-23.0305,13.2443,6.8244
0.8215,0.21,0.6895,-21.6565,14.6412,6.145
0.814,0.2236,0.6997,-20.0534,16.5954,5.8779
0.8064,0.2288,0.6995,-18.855,18.2061,5.7939
0.7864,0.2344,0.7102,-17.542,19.6947,5.6489
0.7766,0.2312,0.7083,-15.9466,20.9695,5.687
0.7625,0.2292,0.7117,-14.5496,22.0687,5.8702
0.7388,0.2329,0.7358,-13.2672,23.1298,6.0687
0.7278,0.2285,0.7305,-11.6794,23.8779,6.6489
0.7214,0.2207,0.7319,-9.8855,23.6641,7.5649
0.6968,0.229,0.7334,-8.1679,23.9313,8.5267
0.6848,0.2227,0.7454,-6.0305,23.7557,9.374
0.6689,0.2173,0.7571,-4.4122,22.9771,10.8702
0.6431,0.2083,0.752,-2.313,22.1298,12.2061
0.6333,0.2036,0.761,-0.1908,20.8626,13.4275
0.6267,0.1953,0.7603,1.916,19.5496,14.5038
0.6187,0.1865,0.7539,3.9695,17.2672,15.4504
0.6147,0.1846,0.7671,5.9084,15.2519,16.2901
0.6008,0.1802,0.7815,8.0,12.6565,16.8321
0.5928,0.1819,0.7976,10.1832,10.0992,17.1679
0.5889,0.1824,0.7971,12.2061,8.0916,17.3511
0.5903,0.1831,0.8091,14.3588,5.9695,17.4886
0.5791,0.1838,0.8037,16.542,4.1374,17.6107
0.5876,0.1838,0.8137,18.9924,2.8626,17.2366
0.582,0.1787,0.8003,21.4427,1.9389,16.8473
0.5737,0.1768,0.8091,24.0305,1.4275,17.084
0.5688,0.1704,0.8123,27.2061,1.0916,16.7405
0.5647,0.1562,0.8035,30.1527,1.1374,16.5267
0.5544,0.1621,0.8035,33.6718,1.5115,16.626
0.5337,0.1538,0.8066,37.2748,1.6794,17.1069
0.5298,0.157,0.7961,42.2137,2.0534,17.8626
0.5125,0.1519,0.791,46.5954,2.0076,19.1985
0.4883,0.1538,0.7925,50.7023,2.0076,20.6641
0.4788,0.1433,0.7722,54.9008,2.0076,22.3359
0.458,0.1357,0.7776,59.0229,1.7252,24.3588
0.4458,0.1287,0.7644,63.4504,1.7328,26.7481
0.4238,0.1267,0.7742,67.3435,1.687,29.2901
0.4177,0.114,0.7546,71.7099,1.4504,32.3435
0.4043,0.1025,0.7397,75.6947,1.6489,35.0
0.3882,0.0913,0.7156,79.6947,1.5954,37.7939
0.3687,0.085,0.7085,83.3511,1.1527,40.9466
0.3538,0.0823,0.7019,87.3206,0.6718,44.6794
0.3469,0.0662,0.6877,90.9008,-0.2595,47.5573
0.345,0.0564,0.668,94.313,-1.145,51.1832
0.3379,0.0466,0.6575,97.4504,-2.1527,54.6412
0.332,0.0278,0.6436,100.3817,-3.2595,57.5191
0.334,0.0254,0.6365,102.6947,-3.5267,60.2672
0.335,0.022,0.6128,105.458,-3.5191,63.7863
0.3364,0.0171,0.6045,107.8702,-3.1832,66.7863
0.3442,0.0063,0.5876,110.0229,-2.8473,69.7481
0.356,-0.0007,0.573,112.3511,-1.6412,72.4122
0.3479,-0.0115,0.5542,114.5878,-0.0611,75.3588
0.3494,-0.0249,0.5544,115.8397,1.4275,77.8015
0.3435,-0.0398,0.5208,118.8168,2.9008,80.2672
0.3413,-0.0444,0.5227,120.5115,4.0458,82.5343
0.3462,-0.0525,0.5188,121.0687,5.4198,84.8168
0.3367,-0.0566,0.5042,120.5649,6.6031,87.0687
0.322,-0.0725,0.5024,120.2748,7.9008,89.5725
0.3218,-0.0781,0.4929,121.0687,9.1298,91.9695
0.3076,-0.0757,0.4771,124.2824,10.855,94.5649
0.301,-0.0867,0.479,122.9237,12.2443,97.1908
0.2893,-0.0903,0.4756,124.7481,13.1679,99.9618
0.2781,-0.1006,0.4995,125.4885,14.3435,102.0153
0.2585,-0.1201,0.4863,125.9695,15.771,105.4885
0.2527,-0.1516,0.4773,126.2443,17.3053,108.2137
0.2454,-0.1716,0.4844,127.0305,19.1527,111.2137
0.2349,-0.1953,0.47,127.5191,21.5191,114.9389
0.2263,-0.2104,0.4736,127.9924,23.9771,118.9008
0.2092,-0.2317,0.4788,128.7481,26.1985,123.2137
0.2102,-0.2563,0.5002,129.4657,28.3206,128.313
0.1951,-0.2871,0.5061,130.8779,30.0305,133.8168
0.1836,-0.2957,0.5295,132.374,31.2748,139.9313
0.1621,-0.2988,0.5525,134.2977,32.542,145.8321
0.1497,-0.3118,0.5891,136.5114,32.9542,152.313
0.1311,-0.3196,0.6226,139.3512,32.7939,158.9237
0.115,-0.3237,0.6528,142.3435,32.0916,165.8244
0.1099,-0.3413,0.6843,146.0229,31.1069,172.7099
0.1008,-0.364,0.7036,149.8244,30.1985,179.8702
0.0923,-0.3789,0.7278,154.2595,29.1832,186.7252
0.0989,-0.3906,0.7349,158.9008,27.9695,193.7863
0.0947,-0.4124,0.7522,164.2672,26.5878,200.687
0.0962,-0.4109,0.7712,170.3893,25.2519,208.7557
0.1047,-0.4058,0.7925,176.4657,23.7786,216.542
0.1746,-0.3535,0.7749,182.6031,24.7481,226.9695
0.0876,-0.3718,0.7991,190.3282,29.3817,241.0916
0.1394,-0.3816,0.8269,196.5573,32.0305,250.1298
0.1628,-0.4302,0.7878,202.6718,35.4275,250.1298
0.1726,-0.4487,0.7703,209.374,39.3588,250.1298
0.1924,-0.5288,0.7754,216.6641,41.3282,250.1298
0.1816,-0.5906,0.8086,224.7863,39.5496,250.1298
0.1985,-0.6465,0.8213,233.3664,34.6336,250.1298
0.2197,-0.6606,0.8206,243.0992,32.1527,250.1298
0.2756,-0.6902,0.7971,250.1298,30.6565,250.1298
0.3271,-0.7236,0.8105,250.1298,27.2443,250.1298
0.3899,-0.7341,0.7698,250.1298,24.2824,250.1298
0.468,-0.7517,0.7129,250.1298,23.5878,250.1298
0.5435,-0.7637,0.6384,250.1298,24.084,250.1298
0.5947,-0.7913,0.5754,250.1298,24.4809,250.1298
0.6428,-0.8313,0.5002,250.1298,24.6947,250.1298
0.697,-0.8816,0.4333,250.1298,24.6565,250.1298
0.719,-0.9072,0.4045,250.1298,24.0,250.1298
0.7786,-0.9563,0.2949,250.1298,23.4733,250.1298
0.8472,-0.9937,0.1865,250.1298,23.4656,250.1298
0.9243,-1.012,0.0762,250.1298,24.0534,250.1298
0.999,-1.0168,-0.0527,250.1298,25.6412,250.1298
1.093,-1.0107,-0.1655,250.1298,28.8397,250.1298
1.1863,-0.9861,-0.2686,250.1298,33.1221,250.1298
1.2725,-0.949,-0.386,250.1298,39.1374,250.1298
1.3193,-0.926,-0.4424,250.1298,45.8702,250.1298
1.4138,-0.8806,-0.5339,250.1298,54.2672,250.1298
1.4954,-0.8618,-0.6218,250.1298,62.8015,250.1298
1.5737,-0.8386,-0.7029,250.1298,71.458,250.1298
1.6357,-0.832,-0.7781,250.1298,80.3969,250.1298
1.7031,-0.8118,-0.864,250.1298,89.0229,250.1298
1.7573,-0.7896,-0.9387,250.1298,97.0382,250.1298
1.7949,-0.7561,-0.9888,250.1298,103.4885,250.1298
1.833,-0.7151,-1.0188,250.1298,108.0534,250.1298
1.8525,-0.6953,-1.0449,250.1298,111.8092,250.1298
1.8831,-0.6514,-1.1001,250.1298,115.8931,250.1298
1.9075,-0.5911,-1.1304,250.1298,120.7099,250.1298
1.9473,-0.5178,-1.1387,250.1298,125.2748,250.1298
1.9619,-0.446,-1.1191,250.1298,128.9542,250.1298
1.9788,-0.3711,-1.1023,250.1298,132.1145,250.1298
1.9751,-0.3132,-1.0723,250.1298,134.0763,250.1298
1.9595,-0.2571,-1.0598,250.1298,135.0916,250.1298
1.9541,-0.2334,-1.0681,250.1298,135.4351,250.1298
1.9163,-0.1768,-1.0576,250.1298,135.0076,250.1298
1.8735,-0.1345,-1.0422,250.1298,133.4427,250.1298
1.8269,-0.1003,-1.0044,244.0,130.2214,250.1298
1.7751,-0.0688,-0.9634,230.229,125.2824,250.1298
1.7261,-0.0439,-0.9055,216.9008,118.5878,241.9618
1.6777,-0.0354,-0.8452,203.9771,109.9466,233.8092
1.6396,-0.0315,-0.7886,191.6412,100.4275,226.8397
1.626,-0.0381,-0.7673,180.1985,89.9084,220.9771
1.5864,-0.0552,-0.7271,168.6947,79.0229,216.0153
1.5691,-0.0779,-0.7029,159.1221,69.0763,212.5267
1.5547,-0.1111,-0.6863,150.4122,60.2901,209.1145
1.5432,-0.144,-0.666,143.0534,52.0992,207.3664
1.5403,-0.1689,-0.6279,135.855,43.4351,205.4198
1.5486,-0.1909,-0.5955,131.2977,37.0611,204.313
1.5532,-0.2168,-0.583,126.771,30.6336,203.8931
1.5815,-0.2363,-0.5488,123.9542,26.2824,204.4046
1.614,-0.2668,-0.5359,123.3053,23.5496,204.9695
1.6475,-0.293,-0.5237,121.2824,21.9924,205.7863
1.6851,-0.3162,-0.5,120.4733,21.542,207.3664
1.7126,-0.3403,-0.4851,122.3206,22.1527,208.7557
1.7542,-0.3667,-0.4614,123.7557,23.2901,210.5343
1.7927,-0.3882,-0.438,125.3664,25.2366,212.4427
1.8303,-0.4089,-0.4075,128.0916,27.687,213.8473
1.8484,-0.4207,-0.4023,131.2366,30.8321,215.1374
1.8972,-0.425,-0.3979,134.9542,34.5267,216.6565
1.9375,-0.4336,-0.3892,139.5191,38.1679,217.8702
1.9999,-0.4385,-0.3921,144.6488,41.9084,218.5343
1.9999,-0.4468,-0.4175,150.1298,45.8092,218.9695
1.9999,-0.4661,-0.4482,156.1603,50.6183,218.8244
1.9999,-0.479,-0.4871,162.2061,56.1756,217.8702
1.9999,-0.4939,-0.5208,168.2977,62.6183,215.8015
1.9999,-0.4961,-0.531,174.3053,69.0153,213.2824
1.9999,-0.488,-0.5532,180.0763,75.1527,209.5954
1.9999,-0.4771,-0.5728,185.1985,80.626,204.9466
1.9999,-0.4636,-0.5867,190.3969,86.0305,199.0076
1.9999,-0.4443,-0.6013,194.6794,89.687,192.4122
1.9999,-0.4194,-0.613,198.2214,92.626,185.3512
1.9999,-0.3892,-0.646,200.9847,95.0611,177.374
1.9999,-0.3567,-0.6772,203.0916,96.8702,168.5878
1.9999,-0.3433,-0.7031,204.0992,98.3588,160.4198
1.9999,-0.3125,-0.7397,204.3053,99.6489,150.9084
1.9999,-0.2744,-0.7773,203.3512,100.9313,141.5954
1.9999,-0.23,-0.8091,201.1221,101.9924,132.0382
1.9999,-0.1946,-0.8411,197.6794,102.6565,122.855
1.9999,-0.1475,-0.8569,193.0916,102.9771,113.4809
1.9999,-0.1157,-0.8779,187.0229,103.1527,103.4657
1.9999,-0.0671,-0.8879,179.8397,103.1679,94.5038
1.9999,-0.0354,-0.8948,171.4122,102.4046,85.4046
1.9999,-0.0137,-0.8916,161.7252,101.3588,76.4198
1.9999,-0.001,-0.8972,151.7176,100.1069,67.9008
1.9999,0.0166,-0.8955,140.4809,98.0534,59.9313
1.9946,0.0493,-0.8662,129.1603,95.0229,51.9771
1.949,0.0789,-0.8374,116.8244,91.9695,44.6565
1.9077,0.115,-0.8127,105.0,89.1069,38.8397
1.8557,0.1372,-0.7783,92.5496,86.0076,33.4809
1.8079,0.156,-0.7502,80.4504,83.0305,29.3435
1.7861,0.1531,-0.7314,68.687,80.2061,26.1908
1.7356,0.144,-0.7034,57.2214,76.9618,24.2214
1.6826,0.1311,-0.6672,46.3206,74.0992,22.5954
1.6267,0.0935,-0.6375,36.0305,70.7176,21.3588
1.5686,0.0605,-0.5964,26.3359,66.4885,21.0611
1.5225,0.0225,-0.5562,17.458,61.4962,20.4733
1.4822,-0.0188,-0.5112,9.3664,55.9008,20.5038
1.5784,-0.0657,-0.4761,2.2519,49.5115,21.5954
1.6289,-0.094,-0.4612,-4.3206,44.8015,23.3435
1.7107,-0.1699,-0.4436,-9.5115,39.8855,23.8931
1.8416,-0.2346,-0.4575,-14.5115,38.229,24.5114
1.887,-0.2861,-0.3889,-17.5267,36.5878,23.8321
1.9148,-0.302,-0.3625,-19.1527,34.2443,22.1832
1.9846,-0.345,-0.3167,-20.4046,32.855,20.5573
1.9999,-0.3735,-0.2456,-21.0611,30.1069,17.7786
1.9999,-0.4111,-0.2039,-20.6794,28.2137,14.0153
1.9999,-0.4492,-0.1824,-19.4733,27.6718,10.374
1.9999,-0.4858,-0.1409,-17.7634,26.9771,5.9771
1.9999,-0.522,-0.1155,-15.1679,27.9084,1.313
1.9999,-0.5396,-0.0786,-12.1756,29.084,-2.8626
1.9999,-0.5515,-0.0442,-8.1603,29.3282,-7.3206
1.9999,-0.5615,-0.0151,-4.0992,30.0916,-10.7176
1.9441,-0.5676,0.0261,0.9237,29.916,-13.8855
1.873,-0.5586,0.0508,6.0229,29.2443,-16.3359
1.8208,-0.5408,0.0669,11.2977,28.855,-18.3817
1.7493,-0.5298,0.0854,16.4198,28.3206,-19.4656
1.6865,-0.5063,0.0918,21.3664,27.2519,-20.4122
1.6255,-0.4905,0.0955,26.1985,25.9237,-20.9389
1.5686,-0.4661,0.0874,30.9466,25.1145,-20.7939
1.5322,-0.4514,0.085,35.0992,24.2519,-20.2901
1.4807,-0.4241,0.0715,39.1756,23.3511,-19.626
1.426,-0.397,0.0527,42.4809,22.4351,-19.1069
1.3704,-0.3726,0.0361,44.9542,21.1298,-18.0763
1.3206,-0.3506,0.0215,46.8015,20.0611,-17.2977
1.2744,-0.3245,-0.0083,48.2137,18.8931,-16.8015
1.2332,-0.3054,-0.0437,48.5267,16.9924,-16.2595
1.2021,-0.2791,-0.0693,48.0382,14.6641,-15.7557
1.1738,-0.2524,-0.0964,46.9008,12.0153,-15.7481
1.1563,-0.2437,-0.1106,45.0305,9.6336,-15.8626
1.1284,-0.2192,-0.1252,42.6641,7.0076,-15.8015
1.1138,-0.1858,-0.1416,39.8244,4.0076,-16.4962
1.0981,-0.1575,-0.1643,36.5802,0.4885,-16.8779
1.0845,-0.1272,-0.1841,32.8015,-2.7786,-17.4656
1.085,-0.1045,-0.1965,28.4809,-5.9237,-18.3282
1.0784,-0.0876,-0.2061,23.1985,-9.0305,-19.4046
1.0786,-0.0737,-0.2178,17.7176,-12.1374,-20.313
1.0786,-0.0627,-0.2212,11.7557,-15.0992,-21.7023
1.0713,-0.0591,-0.2153,5.2366,-18.3511,-23.0076
1.0681,-0.0491,-0.2212,-1.1756,-21.2519,-24.2672
1.073,-0.0444,-0.2156,-8.2137,-23.5954,-25.5344
1.0701,-0.0391,-0.1995,-14.7328,-25.5878,-27.0229
1.072,-0.0347,-0.1809,-20.9008,-27.4122,-28.0611
1.0623,-0.0493,-0.1702,-27.145,-28.8321,-29.0687
1.0537,-0.0596,-0.1611,-32.313,-29.9237,-29.9695
1.0642,-0.0654,-0.1572,-37.2748,-30.6718,-30.7557
1.0496,-0.0981,-0.1277,-41.1832,-31.0763,-30.7557
1.041,-0.115,-0.1196,-44.4733,-31.8626,-30.9542
1.0427,-0.1428,-0.1074,-47.084,-32.145,-30.458
1.0359,-0.1685,-0.0881,-48.8473,-32.0382,-29.3969
1.0386,-0.1887,-0.0815,-49.7939,-32.2672,-28.5114
1.0313,-0.2087,-0.0588,-50.6107,-31.9389,-27.1908
1.0332,-0.2183,-0.0376,-50.2824,-31.5954,-25.9924
1.0374,-0.2317,-0.0354,-50.084,-31.1374,-24.5344
1.0356,-0.2478,-0.0308,-49.2748,-30.9466,-22.8244
1.0417,-0.2671,-0.0137,-48.2214,-30.6107,-21.5496
1.0476,-0.2864,-0.0125,-46.9542,-30.5802,-20.3359
1.0566,-0.2932,-0.0044,-45.4122,-30.4198,-18.7252
1.0664,-0.3027,0.009,-43.8092,-29.8855,-17.3893
1.0715,-0.3096,0.0046,-41.8397,-28.9008,-16.3588
1.0908,-0.3164,-0.0034,-39.5878,-27.6794,-15.0916
1.0996,-0.3225,-0.0037,-37.6107,-26.4809,-14.1985
1.1155,-0.3323,-0.0066,-34.7252,-24.5573,-13.084
1.127,-0.3486,-0.0222,-32.2061,-22.8626,-12.5496
1.1333,-0.3542,-0.0269,-29.542,-21.3435,-11.8168
1.1401,-0.3608,-0.0173,-27.0076,-19.7099,-11.4198
1.1467,-0.3616,-0.022,-24.5649,-17.9847,-11.145
1.1597,-0.3557,-0.0259,-22.2748,-16.2214,-10.8397
1.1653,-0.3474,-0.0266,-19.6718,-14.2443,-10.7328
1.1802,-0.3413,-0.0305,-17.6336,-12.1374,-10.7252
1.1929,-0.3413,-0.0415,-15.6336,-9.8855,-10.3969
1.2039,-0.3423,-0.0491,-13.6107,-7.3588,-10.5878
1.2083,-0.3369,-0.0647,-11.9618,-4.8168,-10.7176
1.2095,-0.3364,-0.0669,-10.6794,-2.5191,-10.7634
1.2119,-0.3396,-0.0698,-9.3664,0.0229,-11.0687
1.2107,-0.3394,-0.0867,-8.4046,2.1298,-11.1985
1.2195,-0.3455,-0.0837,-7.7939,4.0458,-11.687
1.2158,-0.343,-0.0928,-7.4962,6.0229,-12.1832
1.2246,-0.3401,-0.0889,-7.4962,7.2137,-12.9313
1.2139,-0.3411,-0.1091,-7.8244,8.2901,-13.6412
1.2217,-0.3323,-0.1123,-8.2824,8.4809,-14.6641
1.2217,-0.3235,-0.1191,-8.9084,8.9466,-15.5267
1.2163,-0.3184,-0.1279,-9.9542,8.6183,-16.9313
1.2156,-0.3101,-0.1187,-11.2061,7.9237,-18.3664
1.2144,-0.3057,-0.1355,-12.7176,7.1374,-19.4427
1.22,-0.2981,-0.1345,-14.4885,5.7176,-21.0687
1.2158,-0.2974,-0.1316,-16.4198,4.0916,-23.1908
1.2065,-0.3015,-0.1414,-18.7634,2.3588,-25.145
1.207,-0.292,-0.1545,-21.1756,0.7176,-27.1221
1.207,-0.2993,-0.1479,-23.8244,-1.5267,-29.6031
1.2024,-0.2996,-0.1479,-26.2977,-3.8244,-31.7405
1.196,-0.2874,-0.1438,-28.855,-6.0076,-33.9924
1.2004,-0.291,-0.145,-31.4275,-8.6183,-36.2748
1.2078,-0.2859,-0.1558,-33.7863,-11.4733,-38.3664
1.1963,-0.2876,-0.1665,-35.771,-13.6336,-40.2443
1.1924,-0.2886,-0.1826,-38.145,-15.7099,-41.8855
1.1897,-0.2947,-0.1985,-40.1298,-17.4046,-43.4504
1.2053,-0.2949,-0.2053,-41.5573,-18.4198,-44.7939
1.2043,-0.2964,-0.2153,-43.4046,-19.3893,-45.7176
1.1978,-0.3025,-0.2166,-44.8168,-19.8702,-46.4733
1.2051,-0.314,-0.2336,-46.313,-19.8855,-46.7939
1.1987,-0.3188,-0.2446,-47.4427,-19.7405,-47.3435
1.1982,-0.3252,-0.2593,-48.3282,-18.9618,-47.5649
1.1963,-0.3293,-0.2603,-49.084,-18.2748,-47.6031
1.1843,-0.3271,-0.2637,-49.3969,-17.5725,-47.7557
1.1824,-0.3264,-0.27,-49.7405,-16.9084,-48.0916
1.1682,-0.3345,-0.2822,-49.7023,-16.7786,-48.0687
1.1587,-0.3381,-0.2896,-49.5115,-16.6641,-47.9466
1.1438,-0.3367,-0.2915,-49.2977,-16.8244,-48.1221
1.1328,-0.3477,-0.3059,-49.2061,-17.2443,-47.9695
1.1204,-0.3401,-0.3142,-48.8855,-18.3435,-47.9695
1.1047,-0.3354,-0.3357,-48.542,-19.687,-47.5878
1.0913,-0.3333,-0.3542,-48.4427,-20.6031,-47.7176
1.0952,-0.3306,-0.3518,-48.374,-21.7099,-47.4504
1.0793,-0.3293,-0.384,-48.4809,-23.0534,-47.4809
1.0801,-0.3235,-0.3989,-48.8473,-23.7252,-47.313
1.0715,-0.3186,-0.4209,-49.3817,-24.687,-47.2366
1.0657,-0.3193,-0.4485,-49.9618,-25.7786,-47.374
1.0652,-0.313,-0.4709,-50.7405,-26.5267,-47.2595
1.0691,-0.3105,-0.5007,-51.7557,-27.3588,-46.9847
1.061,-0.3052,-0.5283,-52.9542,-27.7176,-46.4809
1.0718,-0.2883,-0.561,-54.0534,-27.458,-46.0992
1.0786,-0.2766,-0.5681,-55.6489,-26.626,-46.0534
1.0886,-0.2634,-0.6118,-57.2214,-25.5725,-44.9924
1.1057,-0.2556,-0.6355,-59.1527,-23.7786,-44.3053
1.1233,-0.2507,-0.6641,-61.6336,-21.5496,-43.4656
1.1362,-0.2341,-0.6792,-64.4504,-18.8626,-42.6489
1.1494,-0.2427,-0.7007,-67.5115,-16.0763,-41.5802
1.155,-0.2329,-0.7197,-70.7786,-12.6565,-41.0458
1.168,-0.2356,-0.7173,-74.3435,-9.542,-40.0458
1.1763,-0.2341,-0.7278,-77.8092,-6.6947,-39.5649
1.1885,-0.2227,-0.7295,-81.6107,-4.0,-39.0229
1.189,-0.231,-0.72,-85.4733,-1.6718,-38.7481
1.2007,-0.2336,-0.7192,-89.3359,0.2061,-38.7939
1.2046,-0.2332,-0.7139,-93.145,1.4504,-39.0763
1.2083,-0.2405,-0.7058,-96.4427,1.9695,-39.6565
1.2168,-0.2505,-0.6926,-100.3435,2.2061,-40.5573
1.2161,-0.2571,-0.6892,-104.0305,1.9237,-41.771
1.2197,-0.2593,-0.6899,-107.6031,1.0992,-43.313
1.229,-0.261,-0.6687,-111.3817,0.5267,-45.0382
1.2327,-0.2727,-0.6624,-115.0687,-0.3817,-47.1908
1.2305,-0.272,-0.6433,-119.2137,-1.5573,-49.6183
1.2371,-0.271,-0.6323,-122.7252,-2.8855,-51.7634
1.231,-0.2803,-0.613,-126.8244,-4.9237,-54.3664
1.2241,-0.2727,-0.5957,-130.4962,-7.3969,-57.4351
1.2158,-0.2722,-0.5813,-134.1908,-9.916,-60.5115
1.2097,-0.2739,-0.574,-137.7863,-12.4351,-63.374
1.2034,-0.2725,-0.5618,-141.5954,-15.1298,-66.8397
1.197,-0.2666,-0.5403,-145.3893,-17.4656,-69.9771
1.1912,-0.2615,-0.5161,-148.5802,-19.3893,-72.6031
1.1868,-0.2566,-0.5046,-151.9084,-20.9237,-75.7481
1.1719,-0.2432,-0.4966,-155.0687,-21.8855,-78.1374
1.1563,-0.24,-0.4756,-158.0153,-22.2214,-80.5191
1.1418,-0.2307,-0.459,-160.5573,-22.1756,-82.8779
1.1304,-0.2253,-0.4617,-162.771,-22.1374,-84.6183
1.1006,-0.2144,-0.4248,-165.145,-21.4886,-86.4809
1.0781,-0.2043,-0.4084,-167.3817,-21.4198,-87.8855
1.0562,-0.1985,-0.3816,-169.3435,-21.5191,-88.8779
1.0146,-0.1826,-0.3567,-171.4733,-21.2214,-89.4657
0.9895,-0.1699,-0.3362,-173.1908,-21.0,-90.9847
0.9697,-0.1682,-0.313,-174.9847,-20.7863,-90.1374
0.9475,-0.1567,-0.2871,-176.1298,-20.3359,-91.2137
0.9214,-0.1394,-0.2703,-178.0305,-19.6489,-89.8397
0.9001,-0.1382,-0.2566,-179.5343,-18.2519,-90.3359
0.8684,-0.1184,-0.2344,-181.4962,-16.4198,-89.5115
0.8352,-0.1079,-0.2019,-183.1985,-14.6641,-88.5649
0.803,-0.1086,-0.1753,-184.3817,-13.1908,-87.4122
0.7734,-0.1294,-0.1467,-185.7328,-11.9466,-86.2595
0.739,-0.1211,-0.1167,-187.0229,-10.916,-84.9237
0.7107,-0.113,-0.0864,-188.084,-10.2901,-83.6641
0.6885,-0.1091,-0.0706,-189.1908,-10.3969,-82.3053
0.6628,-0.0986,-0.0286,-189.9542,-11.145,-80.3053
0.6414,-0.0896,0.0012,-190.8473,-12.313,-78.3359
0.6111,-0.0894,0.0154,-191.771,-14.1756,-76.1603
0.5935,-0.0967,0.0552,-192.7099,-16.3206,-73.9008
0.5796,-0.1001,0.0962,-194.1756,-18.626,-71.0534
0.5708,-0.1138,0.1204,-195.5878,-21.855,-68.6031
0.5696,-0.1226,0.1589,-197.2519,-25.2901,-66.1527
0.5627,-0.1313,0.1697,-199.4046,-28.8168,-63.9008
0.5637,-0.1409,0.2153,-201.4198,-33.1374,-61.7786
0.5657,-0.1357,0.262,-203.5114,-38.0153,-59.5496
0.5627,-0.1409,0.2881,-205.626,-42.4046,-58.3664
0.5747,-0.1506,0.3406,-207.7328,-47.0076,-57.2824
0.5791,-0.1619,0.3831,-209.2824,-52.1679,-56.4885
0.584,-0.1709,0.4219,-210.5649,-58.0382,-55.5496
0.5984,-0.1704,0.4583,-211.6794,-63.458,-55.1756
0.6045,-0.1838,0.4673,-212.2137,-68.7557,-54.6565
0.625,-0.1924,0.5183,-212.3588,-74.5496,-54.1756
0.6458,-0.2048,0.5435,-212.2137,-79.4809,-53.5878
0.6731,-0.2295,0.5674,-211.3893,-83.2672,-53.1756
0.7126,-0.25,0.5986,-210.2595,-85.4809,-52.6718
0.7463,-0.2515,0.616,-208.4046,-85.1756,-51.9695
0.7915,-0.2573,0.6248,-206.1527,-82.7405,-51.2366
0.8289,-0.2559,0.6414,-203.1832,-78.145,-50.0611
0.8533,-0.2607,0.6602,-199.1145,-71.1908,-48.5267
0.8687,-0.2605,0.6753,-194.8321,-63.4962,-46.6412
0.896,-0.2605,0.6877,-189.916,-55.0382,-44.5725
0.9031,-0.2637,0.7271,-184.3359,-45.9618,-41.7863
0.9067,-0.2632,0.7598,-178.0305,-37.374,-38.9084
0.9128,-0.2646,0.7917,-171.4351,-28.9008,-35.5344
0.907,-0.2876,0.8103,-164.3053,-20.7634,-31.7634
0.8958,-0.3064,0.8369,-156.8244,-12.7405,-28.0305
0.8899,-0.3152,0.8582,-149.084,-5.4046,-24.3435
0.8867,-0.3203,0.884,-141.2443,0.9771,-20.2519
0.8823,-0.3289,0.9114,-132.9924,5.8779,-16.1908
0.8694,-0.3254,0.9277,-124.7939,10.0305,-12.3969
0.8577,-0.3333,0.9543,-116.6031,12.3053,-8.8626
0.8506,-0.3408,0.9561,-108.4427,13.916,-5.2443
0.8433,-0.3372,0.9561,-100.6107,14.8168,-2.1145
0.8525,-0.3416,0.9592,-92.6641,14.8626,0.9008
0.8582,-0.3472,0.9497,-85.2214,14.0229,3.687
0.8665,-0.3503,0.9456,-78.2748,13.0534,5.8244
0.8862,-0.3447,0.9241,-71.5496,11.687,7.7023
0.9089,-0.3384,0.8911,-65.4962,10.1527,9.2519
0.9377,-0.3281,0.875,-60.3969,8.8397,10.1298
0.97,-0.3162,0.8362,-55.916,7.8931,10.8473
1.0125,-0.3062,0.8098,-52.3435,6.9466,10.8321
1.0332,-0.2979,0.78,-49.4733,6.4046,10.4656
1.0659,-0.2856,0.7646,-47.0534,5.9084,9.1603
1.0955,-0.2788,0.7371,-45.8855,5.7176,7.8168
1.1074,-0.2688,0.7244,-45.0763,5.4275,5.9237
1.1174,-0.2625,0.707,-44.8397,5.0458,3.542
1.1355,-0.2549,0.6899,-44.374,4.0229,0.9618
1.1277,-0.2502,0.6802,-44.0534,2.8321,-1.6718
1.1274,-0.2434,0.6829,-43.8931,1.1756,-4.3817
1.1208,-0.2375,0.6777,-43.3588,-0.626,-7.4656
1.1101,-0.2334,0.6777,-42.7023,-2.8931,-10.2519
1.0994,-0.2332,0.6555,-42.4122,-5.0076,-13.3359
1.0803,-0.2258,0.6641,-42.0305,-7.5802,-16.084
1.0703,-0.2241,0.6511,-41.5954,-9.9771,-18.2672
1.0581,-0.2168,0.6477,-41.0611,-12.6183,-20.374
1.0378,-0.2087,0.6453,-40.7405,-14.8779,-21.9542
1.0303,-0.2012,0.6445,-40.1756,-17.0229,-22.9008
1.0205,-0.2009,0.645,-39.7863,-19.5114,-23.4122
1.0159,-0.1824,0.6519,-39.145,-21.4351,-23.6031
1.0066,-0.175,0.6536,-38.6336,-22.9389,-23.2595
0.9993,-0.1702,0.6531,-37.6641,-24.0992,-22.5496
0.9902,-0.1614,0.6479,-36.3893,-24.7405,-21.7786
0.9917,-0.1597,0.6365,-34.8855,-24.5954,-20.8168
0.988,-0.1606,0.6272,-33.3206,-24.6336,-19.3664
0.9858,-0.1604,0.625,-31.1679,-23.6183,-17.8473
1.0,-0.1694,0.6111,-28.7481,-22.374,-16.1069
0.9983,-0.175,0.6064,-26.2214,-20.6412,-13.8855
1.0107,-0.1768,0.6121,-23.4809,-18.5496,-11.7939
1.0259,-0.1836,0.614,-21.0763,-16.3817,-9.9313
1.0325,-0.1873,0.6064,-18.0763,-14.1603,-7.6489
1.0298,-0.1924,0.6084,-14.7863,-11.855,-5.6183
1.0408,-0.189,0.6069,-11.8321,-10.2443,-3.8244
1.0452,-0.1958,0.6123,-8.458,-8.8779,-2.0458
1.052,-0.2051,0.6013,-4.8779,-7.4198,-0.7786
1.0559,-0.2112,0.5898,-1.3664,-6.626,0.5267
1.0566,-0.2144,0.5991,2.3206,-6.0305,1.2214
1.0693,-0.2178,0.5728,5.7557,-5.6641,1.9008
1.0801,-0.2097,0.5728,9.687,-5.2595,2.4046
1.0837,-0.2061,0.55,13.4656,-4.9237,2.0992
1.0991,-0.2031,0.522,17.1908,-4.8244,2.3511
1.0999,-0.2053,0.5173,20.4351,-4.8244,2.1603
1.1023,-0.2024,0.498,24.0305,-4.7634,1.2366
1.1167,-0.1948,0.4739,27.1527,-4.3893,0.8321
1.1274,-0.1902,0.4529,30.2672,-4.1527,0.3206
1.1257,-0.1809,0.4292,33.2672,-3.9618,-0.8015
1.1226,-0.1707,0.4006,35.9237,-4.1908,-1.4962
1.1177,-0.1577,0.3789,38.3893,-4.1374,-2.4275
1.1199,-0.1506,0.3562,40.6947,-4.2519,-3.5725
1.1233,-0.1379,0.3472,42.771,-4.458,-4.626
1.1101,-0.1379,0.3047,44.4656,-4.6641,-5.6107
1.103,-0.1213,0.2751,46.0382,-4.9084,-6.9542
1.1038,-0.1111,0.2485,47.2901,-5.2595,-7.8397
1.0872,-0.0984,0.2117,48.458,-5.4275,-9.0534
1.0859,-0.0813,0.1787,49.0153,-5.8473,-9.9466
1.073,-0.0671,0.137,49.7252,-6.7557,-10.916
1.0623,-0.0452,0.1074,50.0,-7.2519,-11.7786
1.0474,-0.0352,0.0967,49.8397,-8.1069,-13.0305
1.0432,-0.0168,0.0688,48.8931,-8.9084,-14.0992
1.0415,0.0012,0.0298,47.8397,-9.1221,-14.6794
1.0229,0.0049,0.0171,46.458,-9.5878,-15.4962
1.0298,0.0161,-0.0085,44.6031,-9.5802,-16.0382
1.0149,0.0283,-0.0461,42.5191,-9.2519,-16.4198
1.0117,0.0378,-0.0471,40.1832,-8.8779,-16.2672
1.0017,0.0466,-0.0842,37.8168,-8.2901,-16.4122
0.9988,0.0569,-0.0854,35.3435,-7.8168,-15.8321
0.9885,0.0645,-0.0918,32.8626,-7.5038,-15.5267
0.9824,0.0723,-0.0957,29.9542,-7.0611,-14.7099
0.9712,0.0715,-0.124,27.5649,-6.6641,-14.084
0.9651,0.071,-0.1218,24.7252,-6.4885,-12.7786
0.9568,0.071,-0.1233,22.3511,-6.7252,-11.6947
0.947,0.0671,-0.126,19.9389,-7.145,-10.4504
0.9409,0.0698,-0.1277,17.6947,-7.6565,-8.8244
0.9468,0.0649,-0.1311,15.7023,-8.1832,-7.4733
0.9475,0.0627,-0.1306,13.8168,-8.5802,-6.3511
0.9465,0.0522,-0.1162,11.9389,-9.3511,-4.9008
0.9539,0.0486,-0.1177,10.5496,-9.8626,-3.1985
0.9604,0.0417,-0.1116,9.4885,-10.5115,-2.2748
0.9751,0.0295,-0.1084,8.5267,-10.7481,-1.1527
0.9846,0.0256,-0.1006,7.8015,-11.2214,-0.1145
1.0017,0.0134,-0.0864,7.3664,-11.2672,0.3053
1.01,0.0146,-0.0906,6.9084,-11.1908,0.7863
1.0322,0.0063,-0.0881,7.0763,-11.1679,1.2824
1.0369,0.0027,-0.0796,7.2824,-10.542,1.4122
1.0525,0.0007,-0.0696,7.5344,-9.9008,1.1374
1.0598,-0.0027,-0.0518,8.1069,-9.0763,1.4656
1.0686,-0.0166,-0.0498,8.8015,-8.0687,1.2137
1.0791,-0.012,-0.0405,9.771,-6.9466,0.7939
1.0898,-0.0137,-0.0359,10.8779,-5.8473,0.5191
1.0945,-0.0127,-0.032,11.687,-4.7252,-0.0458
1.0908,-0.0237,-0.0283,12.9542,-3.1603,-0.7023
1.0981,-0.0227,-0.0244,14.4275,-2.3053,-0.9466
1.0913,-0.0315,-0.0166,15.3664,-1.2061,-1.4275
1.0864,-0.0383,-0.0112,16.6183,-0.084,-1.9771
1.0825,-0.0413,-0.0061,17.8931,0.8397,-2.3664
1.0632,-0.0422,-0.0029,19.0687,1.0076,-2.7481
1.0615,-0.042,-0.0093,20.1298,1.458,-3.374
1.0591,-0.0403,-0.0078,21.2672,1.7863,-3.5267
1.0469,-0.041,-0.0044,22.3511,1.6641,-4.0687
1.0452,-0.0491,-0.002,23.4809,1.5115,-4.2595
1.0347,-0.0459,-0.0066,24.229,1.5649,-4.3893
1.0283,-0.0425,-0.012,24.9924,1.3969,-4.6641
1.019,-0.0439,-0.0288,25.7176,1.374,-4.3359
1.0195,-0.0461,-0.032,26.3893,1.4275,-4.2519
1.0151,-0.0393,-0.0481,26.9008,1.5725,-4.0153
1.0193,-0.0381,-0.0601,27.1069,1.8168,-3.7176
1.0137,-0.0322,-0.0579,27.2137,1.9695,-3.1221
1.0132,-0.0332,-0.0662,27.4809,2.0611,-2.5191
1.0227,-0.0327,-0.074,27.2443,2.1603,-1.9313
1.0208,-0.0322,-0.0825,26.8015,2.5649,-1.4198
1.0256,-0.0305,-0.0974,26.5267,2.7634,-0.9771
1.0264,-0.0273,-0.103,25.771,3.3435,0.2137
1.0227,-0.0264,-0.1135,25.1145,3.6947,0.9695
1.0317,-0.022,-0.1094,24.145,3.9237,1.3206
1.0342,-0.0173,-0.1196,23.145,4.0611,1.687
1.0364,-0.0181,-0.1257,22.1679,3.7176,2.2595
1.031,-0.0188,-0.1121,21.2901,3.3359,2.5038
1.0454,-0.0195,-0.1279,20.1679,2.7328,2.8015
1.0452,-0.0193,-0.1208,19.0992,2.0687,2.8473
1.051,-0.0208,-0.1248,17.8015,1.1298,2.5649
1.0544,-0.031,-0.1191,16.5802,0.0229,2.4885
1.0547,-0.022,-0.1204,15.5496,-0.9695,2.313
1.0647,-0.0259,-0.1316,14.6031,-2.0458,1.9695
1.0635,-0.0239,-0.113,13.3053,-3.0153,1.6641
1.0737,-0.0222,-0.1184,12.3893,-3.7557,1.3282
1.0767,-0.0161,-0.124,11.3817,-4.2443,0.8779
1.0886,-0.0115,-0.1169,10.2366,-4.4962,0.5038
1.0901,-0.0085,-0.1199,9.1985,-5.0153,0.0992
1.0923,-0.0137,-0.1162,8.2443,-5.3359,-0.3359
1.0967,-0.0081,-0.1091,7.1679,-5.4962,-0.3817
1.0955,-0.009,-0.1062,6.1069,-5.771,-0.5802
1.1057,-0.0181,-0.1011,5.229,-5.8244,-1.0916
1.0984,-0.0164,-0.093,4.4504,-6.1145,-1.1679
1.1062,-0.02,-0.0806,3.4809,-6.5038,-1.0153
1.103,-0.0181,-0.0796,2.8244,-6.8244,-1.6565
1.0981,-0.0176,-0.0715,2.5115,-7.3893,-2.145
1.1045,-0.0205,-0.0608,1.8779,-7.9313,-2.4962
1.1064,-0.0266,-0.0566,1.4351,-8.5649,-3.0382
1.104,-0.0376,-0.0444,1.2366,-8.6718,-3.8321
1.0994,-0.0381,-0.0442,1.0229,-8.9466,-4.0763
1.1104,-0.0386,-0.0383,1.0076,-8.9466,-4.5038
1.1033,-0.0547,-0.0432,1.0534,-8.4809,-5.2443
1.1042,-0.0552,-0.041,1.4198,-8.1221,-5.8473
1.0994,-0.0574,-0.0332,1.6718,-7.5878,-6.1985
1.095,-0.0583,-0.0227,2.1145,-7.0,-6.5802
1.0925,-0.0637,-0.0164,2.5191,-6.1221,-6.8779
1.0886,-0.0686,-0.0081,3.0687,-5.4198,-6.9695
1.0754,-0.0732,0.0063,3.9389,-4.8321,-6.9542
