ax,ay,az,gx,gy,gz
1.2966,-0.0869,-0.6445,55.2519,-85.9771,12.9695
1.3135,-0.0908,-0.6692,55.2366,-85.1298,12.8626
1.3279,-0.083,-0.6909,55.855,-83.6412,12.6565
1.3442,-0.0818,-0.7317,55.6031,-81.1603,12.6107
1.3643,-0.0962,-0.7566,55.4733,-78.5191,12.145
1.3853,-0.0942,-0.7937,55.2977,-75.2748,11.8168
1.4063,-0.1091,-0.8306,55.1832,-71.5954,11.3893
1.4207,-0.1128,-0.8503,54.855,-68.3359,11.0305
1.4395,-0.1284,-0.8931,54.4046,-65.0153,10.4427
1.4548,-0.1304,-0.9172,53.8321,-61.4504,9.7328
1.4739,-0.135,-0.9404,53.313,-58.6336,9.0382
1.4834,-0.1406,-0.9463,52.5496,-55.6565,8.2901
1.4988,-0.1416,-0.9736,51.6412,-53.0153,7.1908
1.5183,-0.1501,-1.0017,50.5802,-50.7252,6.0458
1.5403,-0.1606,-1.0303,49.7099,-48.4046,4.7786
1.552,-0.1597,-1.05,48.1756,-46.6489,3.4809
1.5774,-0.1628,-1.0769,46.7786,-45.0229,2.0076
1.5916,-0.1655,-1.1138,45.1527,-43.3282,-0.3664
1.6108,-0.1658,-1.1306,43.5267,-41.6336,-2.5496
1.6223,-0.1594,-1.1418,41.687,-40.0153,-5.0534
1.6348,-0.1521,-1.1624,39.542,-38.5802,-7.7176
1.6497,-0.1499,-1.1831,37.1603,-37.2595,-10.5878
1.6621,-0.1455,-1.22,34.4504,-36.7405,-13.5802
1.6765,-0.146,-1.2505,31.5649,-35.5344,-16.9389
1.6753,-0.1399,-1.2925,27.9771,-34.0992,-20.2214
1.6926,-0.1306,-1.3218,23.916,-32.0,-23.5954
1.697,-0.1208,-1.3535,19.771,-29.374,-27.1069
1.6948,-0.104,-1.3677,15.4656,-26.9237,-30.0076
1.6968,-0.0898,-1.396,10.0916,-23.8855,-33.8855
1.686,-0.0879,-1.4277,4.7099,-20.6641,-37.4427
1.6743,-0.0935,-1.4514,-0.6412,-17.8321,-40.6718
1.6631,-0.0815,-1.4714,-6.7328,-15.2672,-43.6336
1.6414,-0.0679,-1.4844,-13.229,-13.5038,-46.6412
1.6292,-0.0554,-1.4878,-19.3817,-12.1298,-48.9924
1.6165,-0.0476,-1.5063,-26.3588,-10.8626,-51.6107
1.5969,-0.0466,-1.5112,-33.5725,-10.2214,-53.9084
1.5923,-0.0457,-1.5276,-39.8931,-9.7252,-55.7939
1.5693,-0.0476,-1.5366,-47.8168,-9.542,-57.5496
1.5552,-0.0505,-1.5322,-54.7863,-9.6031,-59.8092
1.5313,-0.043,-1.5459,-62.1374,-9.9389,-61.6031
1.5256,-0.0347,-1.5469,-69.4809,-10.1985,-63.4046
1.5098,-0.0386,-1.5547,-76.7176,-10.5496,-65.2824
1.4946,-0.0259,-1.5586,-84.2977,-10.7863,-66.8855
1.481,-0.0215,-1.5552,-91.8244,-10.7557,-68.4275
1.469,-0.0144,-1.5437,-99.3359,-11.1374,-70.1679
1.4634,-0.0166,-1.5452,-106.6565,-11.3588,-71.916
1.447,-0.0232,-1.5371,-113.8015,-12.084,-73.7405
1.4333,-0.0205,-1.5266,-121.4504,-12.7176,-75.3206
1.4253,-0.0227,-1.5227,-130.0611,-13.0687,-77.2672
1.4124,-0.0298,-1.511,-137.9084,-13.9695,-78.8779
1.3994,-0.0337,-1.49,-145.5878,-14.6412,-80.2672
1.3987,-0.0295,-1.4875,-152.5267,-15.3969,-81.916
1.387,-0.0371,-1.4702,-159.8931,-15.7023,-83.4809
1.3865,-0.0405,-1.4785,-166.4122,-15.6412,-84.8168
1.3806,-0.0471,-1.47,-173.458,-15.0611,-86.8779
1.3679,-0.0454,-1.4534,-179.5038,-13.7786,-88.3511
1.3616,-0.0415,-1.4385,-185.8779,-12.4733,-90.6107
1.3501,-0.031,-1.4275,-191.9237,-11.3206,-91.7176
1.3374,-0.0286,-1.4026,-198.0382,-10.5802,-94.8473
1.3235,-0.0234,-1.3911,-204.1603,-9.7099,-95.6336
1.302,-0.0237,-1.3572,-210.229,-9.2137,-97.1908
1.2944,-0.0232,-1.3369,-216.3282,-9.1145,-99.9924
1.2847,-0.0222,-1.3298,-223.0076,-9.5191,-101.9389
1.2744,-0.0239,-1.3193,-229.0458,-9.9771,-104.1298
1.2561,-0.0229,-1.2983,-235.2824,-10.7252,-105.9008
1.2424,-0.0234,-1.2759,-241.3053,-11.5573,-107.916
1.2285,-0.0154,-1.2449,-247.4733,-13.0992,-109.8855
1.2161,-0.0166,-1.2297,-250.1374,-14.855,-112.1985
1.2039,-0.0166,-1.2219,-250.1374,-16.4656,-114.1374
1.196,-0.0203,-1.2117,-250.1374,-17.6107,-116.4504
1.1895,-0.0217,-1.1965,-250.1374,-19.1527,-118.9008
1.1846,-0.0068,-1.1853,-250.1374,-20.9313,-120.7023
1.1804,-0.009,-1.1792,-250.1374,-22.2519,-122.9695
1.1638,-0.0154,-1.1697,-250.1374,-23.2214,-125.5191
1.1511,-0.0366,-1.1782,-250.1374,-23.8626,-128.0229
1.145,-0.0508,-1.179,-250.1374,-23.7786,-129.7634
1.1301,-0.0664,-1.1799,-250.1374,-23.2824,-132.2977
1.1165,-0.0945,-1.189,-250.1374,-22.0153,-134.5267
1.113,-0.1033,-1.1816,-250.1374,-21.2443,-136.313
1.095,-0.0989,-1.1401,-250.1374,-20.5802,-137.9924
1.0835,-0.1072,-1.1377,-250.1374,-19.9008,-140.0534
1.0605,-0.1245,-1.1191,-250.1374,-18.9771,-141.6412
1.0396,-0.1523,-1.1082,-250.1374,-17.9008,-142.8702
1.0186,-0.175,-1.1038,-250.1374,-16.3969,-144.4351
1.009,-0.1946,-1.0725,-250.1374,-14.5038,-144.9466
0.9844,-0.2258,-1.0486,-250.1374,-11.9466,-145.4122
0.9778,-0.2493,-1.0356,-250.1374,-8.9389,-145.8015
0.9602,-0.2593,-1.0203,-250.1374,-5.626,-145.6565
0.9441,-0.2886,-0.9937,-250.1374,-1.1679,-145.3664
0.9224,-0.313,-0.9451,-250.1374,3.4198,-145.3664
0.8997,-0.3425,-0.9067,-250.1374,8.4809,-144.9313
0.8875,-0.3716,-0.8591,-250.1374,13.4504,-143.8931
0.865,-0.4016,-0.7942,-250.1374,19.0534,-143.2672
0.8516,-0.4204,-0.7275,-250.1374,24.7252,-142.0382
0.8354,-0.4434,-0.6577,-250.1374,30.5573,-140.4046
0.8064,-0.4592,-0.5969,-250.1374,37.1145,-139.0229
0.7969,-0.469,-0.5681,-250.1374,44.084,-137.3893
0.7866,-0.5029,-0.499,-250.1374,51.5878,-135.6031
0.7563,-0.5537,-0.4248,-250.1374,59.7328,-133.4657
0.7407,-0.6023,-0.3552,-250.1374,68.145,-131.3435
0.7119,-0.6597,-0.2727,-250.1374,76.8702,-128.8168
0.6833,-0.7058,-0.1855,-250.1374,85.687,-126.0153
0.6575,-0.7251,-0.0688,-250.1374,96.1069,-121.9542
0.6169,-0.7261,0.0471,-250.1374,102.6489,-118.458
0.6074,-0.7234,0.155,-250.1374,109.9084,-114.8092
0.5759,-0.7271,0.2708,-250.1374,115.8855,-111.626
0.5386,-0.7354,0.3787,-250.1374,121.3053,-107.7023
0.5208,-0.7664,0.501,-250.1374,125.313,-104.0229
0.4983,-0.7761,0.5601,-250.1374,126.8779,-101.3817
0.4729,-0.7759,0.6665,-250.1374,127.3817,-98.1756
0.447,-0.7944,0.781,-250.1374,126.2901,-95.8779
0.418,-0.7888,0.9053,-250.1374,123.3893,-93.0534
0.394,-0.7896,1.0132,-250.1374,119.4122,-92.9466
0.363,-0.8003,1.1206,-250.1374,114.3435,-92.7557
0.3462,-0.8071,1.2222,-250.1374,107.4427,-90.9924
0.3296,-0.8098,1.3232,-250.1374,99.542,-89.5725
0.3286,-0.8088,1.3662,-250.1374,90.5802,-88.7405
0.3186,-0.8003,1.4702,-250.1374,79.7634,-88.2366
0.314,-0.7847,1.5554,-250.1374,68.4809,-87.9618
0.3213,-0.7698,1.6328,-250.1374,56.5573,-87.1145
0.3347,-0.7485,1.6973,-250.1374,44.9084,-86.5954
0.3491,-0.7419,1.752,-250.1374,34.084,-86.4733
0.3608,-0.7239,1.8113,-250.1374,23.4962,-86.5038
0.3926,-0.7151,1.8396,-250.1374,13.7099,-86.8473
0.4131,-0.7051,1.8608,-250.1374,5.3435,-87.0992
0.4316,-0.6909,1.8733,-250.1374,-1.4351,-87.3435
0.4631,-0.6763,1.8823,-250.1374,-7.0611,-87.3664
0.499,-0.6553,1.8918,-250.1374,-11.0458,-86.8397
0.5454,-0.6521,1.8777,-239.8931,-13.0458,-86.2366
0.5803,-0.647,1.8396,-227.1908,-11.9237,-85.4275
0.6143,-0.6211,1.8005,-214.687,-7.1145,-84.2366
0.6396,-0.5945,1.7786,-201.9924,0.1603,-83.4275
0.6582,-0.5588,1.7485,-189.7252,8.9237,-82.4809
0.6633,-0.5447,1.7285,-178.9771,18.9771,-81.2519
0.6646,-0.5195,1.7068,-166.916,30.5725,-80.0229
0.6379,-0.4934,1.7004,-156.8702,41.6489,-78.5725
0.6145,-0.47,1.6973,-146.5496,51.9389,-77.0458
0.5701,-0.4377,1.6846,-137.2061,61.0763,-75.2443
0.5281,-0.4023,1.6936,-128.3817,68.8092,-73.5725
0.4719,-0.3879,1.6995,-120.1298,75.0076,-70.9924
0.417,-0.3655,1.696,-112.4351,78.9618,-68.4198
0.353,-0.356,1.6926,-104.8092,81.0305,-65.4504
0.323,-0.3547,1.6799,-97.8779,81.6031,-62.2137
0.2725,-0.3408,1.6648,-91.0229,80.8626,-58.4885
0.231,-0.3132,1.6533,-84.4198,79.145,-54.5878
0.1797,-0.2976,1.6416,-78.3817,76.542,-50.4656
0.1465,-0.2844,1.6223,-72.5649,72.9542,-45.9542
0.1169,-0.2756,1.6001,-67.4198,68.5267,-41.5038
0.0937,-0.2671,1.5681,-62.4733,63.6641,-36.855
0.0759,-0.2476,1.5349,-57.4122,58.0229,-31.9084
0.0801,-0.2444,1.5198,-53.7786,52.8702,-27.7252
0.0718,-0.2258,1.5039,-49.7405,46.6565,-23.2595
0.0754,-0.2122,1.4663,-46.5191,41.0229,-18.9695
0.0859,-0.2104,1.438,-43.6489,35.4809,-14.9237
0.1021,-0.2058,1.4028,-41.0229,30.3435,-10.8779
0.1182,-0.207,1.373,-38.8168,25.8321,-7.3053
0.1519,-0.2056,1.3516,-36.3053,20.9847,-3.1298
0.1714,-0.2,1.3269,-34.2977,17.458,-0.4046
0.2043,-0.2036,1.2942,-33.0458,14.229,2.1069
0.1753,-0.2166,1.2471,-31.1145,11.3053,4.3282
0.1885,-0.2424,1.3032,-28.9237,9.1527,5.7176
0.3528,-0.1941,1.2627,-27.9084,6.5573,7.0458
0.3301,-0.1929,1.1846,-26.626,9.2214,9.2595
0.3652,-0.2014,1.1829,-24.8244,9.6641,10.1527
0.3806,-0.2295,1.2168,-23.2214,6.8168,10.313
0.3984,-0.2373,1.1858,-21.6412,6.2137,10.3969
0.3994,-0.2522,1.229,-19.3588,3.626,9.9771
0.4102,-0.2649,1.2432,-16.5573,0.7176,9.5496
0.418,-0.2634,1.2441,-13.9084,0.5038,10.0305
0.4016,-0.2722,1.2944,-10.9771,0.3206,10.3511
0.3782,-0.2766,1.3325,-7.7634,-0.4656,11.1832
0.3845,-0.261,1.3157,-4.5038,0.1679,12.3511
0.3821,-0.2698,1.324,-0.9008,0.7481,13.5725
0.3804,-0.2756,1.3291,3.0153,1.0992,15.1145
0.3669,-0.281,1.3323,7.3511,2.0153,17.2672
0.355,-0.2854,1.3469,11.8626,3.1298,19.7328
0.3362,-0.2893,1.3616,16.0916,4.3053,22.1527
0.3132,-0.2876,1.3789,20.8779,5.771,25.0153
0.2886,-0.291,1.4116,25.5649,7.5802,27.8473
0.2534,-0.2981,1.4631,31.2137,9.1603,30.6031
0.2334,-0.2964,1.491,36.7252,10.8321,34.0611
0.2043,-0.3101,1.5088,42.4046,11.7863,37.3893
0.1833,-0.3164,1.5247,48.5191,12.3511,40.7099
0.1562,-0.3279,1.5479,54.3817,12.374,44.458
0.1328,-0.3398,1.5662,60.7939,11.4733,48.687
0.105,-0.3518,1.5835,67.4809,10.6031,52.8321
0.0913,-0.3606,1.6006,74.3664,9.1679,56.9847
0.064,-0.377,1.6387,81.2748,7.5115,61.3435
0.0466,-0.3948,1.646,89.0763,5.3664,66.2137
0.0422,-0.407,1.658,96.1679,3.145,70.5649
0.0295,-0.4336,1.6523,103.3664,0.3359,74.8015
0.0286,-0.4458,1.6589,110.6489,-2.6794,79.084
0.0405,-0.4619,1.6572,117.7786,-5.9084,83.0153
0.0361,-0.4792,1.6343,124.9695,-9.7557,86.6718
0.0427,-0.4966,1.6248,132.5267,-12.9008,90.3282
0.0566,-0.5154,1.5962,139.6565,-15.5649,93.9084
0.061,-0.5291,1.5986,146.6947,-18.3588,97.0153
0.0754,-0.5449,1.5757,153.5496,-20.9008,100.542
0.0918,-0.5671,1.5535,160.1908,-23.1603,103.5725
0.105,-0.5825,1.5247,166.5878,-25.6718,105.8015
0.1174,-0.5928,1.5051,172.8092,-28.4656,108.2137
0.1294,-0.6079,1.4814,178.9542,-31.313,110.3969
0.1421,-0.6272,1.4583,184.9008,-34.542,112.0458
0.1611,-0.6523,1.4128,190.4504,-37.855,114.0534
0.1743,-0.6609,1.3982,195.916,-41.1985,115.6947
0.1838,-0.6838,1.3694,201.3359,-44.2061,117.4504
0.2158,-0.7124,1.3157,206.4657,-47.3969,119.2519
0.2314,-0.7302,1.2725,211.2977,-50.1069,121.1603
0.2563,-0.7385,1.229,216.0229,-52.084,122.7786
0.2822,-0.7437,1.1948,220.1985,-54.1298,124.5038
0.3093,-0.7568,1.1577,224.7634,-56.5191,126.4046
0.3296,-0.7742,1.1226,228.4504,-58.4427,127.542
0.363,-0.7883,1.0894,231.6565,-60.2672,128.5267
0.3813,-0.7991,1.0544,234.771,-62.2672,128.855
0.4121,-0.8,1.03,237.229,-63.8626,129.6412
0.4336,-0.8152,1.0063,240.2366,-64.6718,129.7405
0.4446,-0.8201,0.9875,242.7099,-65.6565,130.0534
0.4653,-0.8311,0.9695,244.9542,-66.4657,130.084
0.479,-0.8372,0.9561,247.4886,-67.2366,129.8015
0.4937,-0.8457,0.9297,249.9695,-67.3817,129.8168
0.511,-0.8542,0.9309,250.1298,-67.3664,129.7405
0.5171,-0.8579,0.9082,250.1298,-66.7328,129.8092
0.519,-0.8535,0.895,250.1298,-65.687,129.7939
0.5164,-0.8503,0.8926,250.1298,-64.2977,130.0534
0.5244,-0.8569,0.8948,250.1298,-62.8779,130.6412
0.5115,-0.8638,0.8728,250.1298,-61.3206,131.6718
0.5112,-0.8665,0.8743,250.1298,-59.8931,132.6031
0.5046,-0.877,0.875,250.1298,-59.0382,133.9695
0.491,-0.8933,0.8818,250.1298,-58.3969,135.5343
0.4785,-0.8977,0.8606,250.1298,-57.9771,137.5649
0.4685,-0.9014,0.8579,250.1298,-57.313,139.4427
0.4524,-0.929,0.843,250.1298,-56.6947,141.8779
0.4487,-0.9531,0.8259,250.1298,-56.084,144.6947
0.4417,-0.9573,0.8164,250.1298,-55.6107,147.7557
0.4346,-0.9624,0.8247,250.1298,-56.2519,151.084
0.4241,-0.9695,0.7942,250.1298,-56.9313,154.5878
0.4275,-0.9722,0.7932,250.1298,-58.229,157.9771
0.4277,-0.9985,0.7698,250.1298,-60.4198,161.6031
0.4404,-1.0205,0.7515,250.1298,-62.4733,164.8702
0.4468,-1.0386,0.7244,250.1298,-64.9313,168.0534
0.4475,-1.0488,0.7007,250.1298,-68.2748,171.4657
0.4575,-1.0808,0.6616,250.1298,-70.6641,174.5725
0.4619,-1.0981,0.6416,250.1298,-72.6641,177.8626
0.4709,-1.1138,0.6025,250.1298,-74.916,181.0534
0.4788,-1.1243,0.5767,250.1298,-77.1756,184.3664
0.4849,-1.135,0.5288,250.1298,-79.4885,188.0382
0.511,-1.1548,0.4651,250.1298,-82.1374,191.5802
0.5291,-1.1831,0.4109,250.1298,-85.1679,195.2901
0.5676,-1.219,0.3333,250.1298,-88.2519,199.2595
0.6038,-1.2588,0.2483,250.1298,-90.8779,202.9466
0.6184,-1.2747,0.2092,250.1298,-92.0611,206.9618
0.6558,-1.3198,0.1174,250.1298,-92.4733,210.8397
0.7004,-1.3533,0.0278,250.1298,-94.7786,214.6183
0.7603,-1.3762,-0.074,250.1298,-94.4809,218.8397
0.8374,-1.4033,-0.1841,250.1298,-94.2519,223.0458
0.9177,-1.4229,-0.3159,250.1298,-94.2672,227.2137
1.0239,-1.4297,-0.427,250.1298,-94.1603,231.145
1.1191,-1.4343,-0.5759,250.1298,-93.5573,234.6565
1.1731,-1.4373,-0.6594,250.1298,-92.6641,237.5802
1.2834,-1.4421,-0.8164,250.1298,-88.145,239.229
1.3987,-1.4272,-0.9534,250.1298,-82.3435,239.771
1.5034,-1.4004,-1.1147,250.1298,-76.5115,239.1069
1.5923,-1.3826,-1.2378,250.1298,-69.8626,237.1908
1.6821,-1.3418,-1.3547,250.1298,-61.9084,234.313
1.791,-1.2947,-1.4971,250.1298,-49.2519,229.2748
1.8374,-1.2483,-1.5806,250.1298,-41.1298,223.0611
1.9048,-1.158,-1.6577,250.1298,-36.0763,215.9389
1.9785,-1.0598,-1.7815,250.1298,-27.5725,209.2901
1.9999,-0.9817,-1.8218,250.1298,-19.0458,202.0382
1.9999,-0.9131,-1.8635,250.1298,-12.0611,194.4351
1.9999,-0.8777,-1.9058,250.1298,-4.313,186.3359
1.9999,-0.821,-1.9282,250.1298,1.0611,177.6488
1.9999,-0.7537,-1.9424,250.1298,4.3664,168.1756
1.9999,-0.7031,-1.9778,250.1298,9.5496,158.9924
1.9999,-0.6599,-1.9766,250.1298,15.542,150.1756
1.9999,-0.6223,-1.9587,250.1298,20.3053,141.2748
1.99,-0.572,-1.9197,250.1298,23.6489,132.7786
1.9495,-0.5413,-1.8833,250.1298,25.9466,124.5496
1.9314,-0.5242,-1.866,250.1298,27.5649,117.2977
1.8706,-0.5027,-1.8152,250.1298,28.2672,110.5191
1.821,-0.4775,-1.7371,250.1298,27.0382,104.5038
1.7576,-0.4717,-1.6777,250.1298,24.1603,99.3588
1.7048,-0.4731,-1.6204,250.1298,20.5649,94.7863
1.6633,-0.4856,-1.5713,250.1298,16.5649,91.4046
1.6057,-0.4949,-1.5361,248.9695,13.0305,88.6031
1.5674,-0.5044,-1.511,242.7634,9.6412,85.6565
1.5205,-0.5144,-1.4673,237.229,6.4885,83.4198
1.4985,-0.5142,-1.45,232.6412,3.2519,81.5267
1.4612,-0.5022,-1.4067,228.4122,-1.1908,79.3435
1.4136,-0.4858,-1.3723,224.5878,-5.4198,77.3282
1.3806,-0.4673,-1.3306,221.1832,-9.8092,75.9618
1.3508,-0.4548,-1.3076,217.5802,-14.7481,74.2214
1.313,-0.4507,-1.2881,213.9771,-19.229,73.0534
1.2766,-0.4492,-1.2544,210.374,-23.5496,72.2977
1.2473,-0.4478,-1.2375,206.916,-27.6107,72.084
1.2212,-0.4382,-1.2065,202.6336,-30.626,72.0305
1.2034,-0.4382,-1.1829,199.4275,-34.8092,72.3359
1.1799,-0.4463,-1.1511,196.3664,-38.855,72.8092
1.1704,-0.4385,-1.1472,194.145,-40.9389,73.855
1.1484,-0.4421,-1.1218,192.5649,-42.7557,75.2137
1.1284,-0.4607,-1.1123,191.7176,-44.4427,76.6947
1.1177,-0.4788,-1.1184,191.687,-44.5725,78.771
1.1101,-0.4995,-1.0991,192.5954,-43.5038,80.8015
1.0911,-0.5188,-1.1074,193.8931,-42.374,83.6641
1.0845,-0.5256,-1.1079,195.5649,-40.0763,86.4122
1.0737,-0.5366,-1.1011,197.542,-37.7405,89.9542
1.0662,-0.5569,-1.0886,200.1756,-34.8626,93.4351
1.0686,-0.5649,-1.0825,202.5191,-31.8779,97.0534
1.0596,-0.5723,-1.0676,205.0687,-29.3435,101.0916
1.0496,-0.6067,-1.0598,208.2672,-27.1527,105.4198
1.1084,-0.6123,-1.0913,210.8473,-24.5496,110.313
1.1541,-0.6257,-1.1362,213.7099,-21.2061,115.1985
1.1909,-0.6445,-1.1643,216.1679,-19.6947,119.626
1.217,-0.6562,-1.1816,219.0611,-19.458,123.6031
1.2922,-0.6558,-1.2322,221.7176,-18.3206,126.4046
1.363,-0.6594,-1.2935,223.8397,-18.1527,128.3893
1.4617,-0.6501,-1.3491,225.7252,-17.4275,129.2519
1.5181,-0.6465,-1.4094,227.084,-16.7252,128.4886
1.5959,-0.6279,-1.4634,227.5573,-15.2748,126.1298
1.6885,-0.5984,-1.5662,226.0229,-9.6183,123.2366
1.7449,-0.5811,-1.6138,223.0611,-5.0916,119.1145
1.8,-0.5571,-1.6665,219.3435,-2.4275,113.8168
1.8542,-0.5186,-1.7378,214.4504,0.7634,108.4657
1.8904,-0.4812,-1.7876,208.7405,4.145,102.1985
1.9304,-0.4497,-1.8567,202.1679,6.7328,95.7786
1.9417,-0.4399,-1.8855,194.5343,10.4733,89.1145
1.9512,-0.426,-1.9336,186.2519,14.0611,82.0763
1.9414,-0.3987,-1.9702,177.0382,17.374,74.8473
1.9812,-0.3523,-2.0,167.374,23.9237,68.8397
1.9211,-0.3577,-2.0,157.855,28.5878,61.8244
1.9136,-0.3176,-1.9907,147.8168,26.5725,54.0305
1.9397,-0.2385,-2.0,137.1756,31.9695,49.2366
1.9131,-0.2124,-2.0,126.7252,43.1756,45.3664
1.8889,-0.2112,-2.0,115.6031,48.6794,40.5344
1.8298,-0.2041,-2.0,104.4427,50.3969,35.374
1.7983,-0.1963,-2.0,92.3893,51.7099,30.2824
1.7578,-0.1902,-2.0,81.3053,52.2977,25.1221
1.7126,-0.188,-2.0,70.3359,51.687,20.3893
1.6646,-0.1882,-2.0,59.1603,51.1069,15.9084
1.6089,-0.1792,-1.9907,48.8168,50.5802,11.3664
1.5635,-0.1687,-1.9436,38.4351,49.4427,7.5954
1.5276,-0.1716,-1.9304,29.0763,49.0229,4.8168
1.4736,-0.1831,-1.8713,19.6794,46.4351,1.7252
1.4075,-0.1887,-1.8252,11.2443,42.9313,-0.2977
1.3604,-0.2075,-1.7983,3.8244,40.2672,-1.2366
1.2996,-0.2205,-1.7527,-2.6947,37.4122,-1.542
1.2678,-0.2332,-1.7222,-9.7252,33.8397,-0.6489
1.2178,-0.2502,-1.7007,-15.4809,30.9618,0.3893
1.189,-0.2563,-1.6995,-20.7863,28.6183,2.5191
1.1687,-0.293,-1.6658,-24.9237,25.687,4.6031
1.1279,-0.3123,-1.6331,-28.7939,22.0076,6.313
1.1387,-0.3096,-1.6318,-34.6107,20.542,9.3664
1.1584,-0.2874,-1.6921,-40.1679,23.6031,12.7099
1.1343,-0.2998,-1.6699,-44.6183,23.1298,15.5267
1.1226,-0.3015,-1.6052,-48.771,19.5191,17.6718
1.1648,-0.2864,-1.6428,-53.2595,19.8092,20.4198
1.1843,-0.3027,-1.6328,-56.5649,20.4656,22.6107
1.1938,-0.3142,-1.625,-59.6718,19.6718,24.6412
1.2178,-0.3157,-1.6326,-62.5954,21.5573,26.7405
1.248,-0.325,-1.6567,-66.3588,25.3588,28.2061
1.2693,-0.3262,-1.6606,-69.8168,27.8168,29.2748
1.3086,-0.3245,-1.6714,-73.4122,30.8626,29.687
1.3323,-0.3274,-1.6746,-77.2214,33.5191,29.3206
1.3657,-0.3186,-1.6714,-81.8092,34.8473,28.4656
1.3823,-0.3118,-1.6838,-86.9237,37.1832,26.916
1.4038,-0.3096,-1.6804,-92.4657,39.2901,24.9847
1.4541,-0.304,-1.6919,-98.374,41.1832,22.3435
1.4197,-0.3066,-1.6577,-105.0153,42.7863,18.9389
1.4443,-0.2878,-1.6538,-111.9008,44.2748,15.7252
1.4451,-0.29,-1.657,-118.5573,46.4046,11.7939
1.4434,-0.2944,-1.627,-125.3969,47.3282,7.9008
1.4312,-0.3032,-1.615,-131.9542,47.5191,3.8626
1.417,-0.2937,-1.614,-138.8168,48.229,-0.2443
1.3831,-0.2996,-1.574,-145.0,48.5267,-3.8626
1.3491,-0.3027,-1.5447,-151.084,47.8626,-7.8702
1.3364,-0.3079,-1.5334,-157.1679,46.7252,-11.3893
1.3018,-0.2991,-1.519,-163.4046,46.3282,-14.9008
1.2786,-0.2986,-1.4927,-169.4275,45.3969,-17.9084
1.2544,-0.2959,-1.458,-174.8321,45.0305,-20.4504
1.2144,-0.2854,-1.4309,-180.7252,45.2137,-22.7634
1.1692,-0.2854,-1.3879,-186.3588,45.2366,-24.4656
1.1282,-0.2876,-1.3667,-191.4504,45.4046,-25.7634
1.0876,-0.2954,-1.334,-196.6412,44.8473,-27.0305
1.0837,-0.2927,-1.3279,-201.1603,44.916,-27.5114
1.043,-0.2891,-1.302,-206.1069,46.1603,-27.9313
1.0354,-0.2839,-1.2996,-210.8855,48.1908,-28.0
1.0234,-0.2834,-1.2803,-215.626,51.5115,-27.2977
1.0051,-0.2939,-1.2834,-220.3435,56.4122,-26.0916
0.9746,-0.3169,-1.2361,-224.8702,60.3664,-25.2519
0.9668,-0.3108,-1.2063,-229.3817,63.8092,-24.145
0.9595,-0.3098,-1.1917,-234.6183,69.9008,-22.5573
0.9409,-0.3196,-1.1482,-239.2061,74.1985,-21.0763
0.9475,-0.3228,-1.1274,-243.3282,78.7405,-19.4656
0.9446,-0.3271,-1.1167,-247.6336,85.4657,-18.0534
0.9382,-0.3437,-1.0769,-250.1374,92.0229,-16.8931
0.9578,-0.3611,-1.0771,-250.1374,98.0534,-15.8015
0.9456,-0.3872,-1.072,-250.1374,106.0229,-14.6489
0.9285,-0.416,-1.0376,-250.1374,112.7099,-14.2137
0.9204,-0.4487,-1.0022,-250.1374,118.9466,-14.3588
0.9011,-0.5078,-0.9614,-250.1374,124.0763,-14.2977
0.8679,-0.5562,-0.9109,-250.1374,127.7939,-14.8092
0.8389,-0.5833,-0.8425,-250.1374,129.8092,-15.1832
0.8127,-0.5974,-0.7512,-250.1374,129.7099,-15.3817
0.7771,-0.5996,-0.6726,-250.1374,128.374,-15.4046
0.7593,-0.6052,-0.6375,-250.1374,125.8092,-15.3511
0.7263,-0.5898,-0.53,-250.1374,120.2366,-15.687
0.6965,-0.5698,-0.4043,-250.1374,113.0534,-15.8855
0.6724,-0.5615,-0.3035,-250.1374,104.9542,-15.7863
0.6526,-0.5635,-0.2017,-250.1374,95.4809,-15.7252
0.6345,-0.571,-0.1021,-250.1374,85.2214,-15.0992
0.6177,-0.5911,-0.0166,-250.1374,73.7863,-14.6794
0.6145,-0.6184,0.0447,-250.1374,62.7481,-13.9924
0.6108,-0.6575,0.1138,-250.1374,51.8092,-12.7023
0.6204,-0.6792,0.1418,-250.1374,40.8702,-11.6718
0.6226,-0.7166,0.1948,-250.1374,30.9618,-10.855
0.6399,-0.7393,0.2537,-250.1374,21.9847,-9.7176
0.6528,-0.7542,0.3081,-250.1374,13.8168,-8.8855
0.6672,-0.7598,0.3667,-250.1374,6.6947,-7.7099
0.6941,-0.7571,0.4275,-250.1374,0.4275,-6.7863
0.7117,-0.7461,0.4983,-250.1374,-4.9542,-5.6107
0.7388,-0.7312,0.5403,-250.1374,-9.1985,-4.3588
0.7556,-0.7332,0.5461,-250.1374,-11.9695,-2.8015
0.783,-0.7236,0.5825,-250.1374,-12.5725,-0.626
0.8147,-0.7239,0.6001,-250.1374,-11.855,1.542
0.8469,-0.7122,0.6052,-250.1374,-8.6641,4.2366
0.8826,-0.7122,0.6133,-250.1374,-4.0916,7.1527
0.9075,-0.7131,0.613,-246.7099,1.6947,10.2366
0.9351,-0.7034,0.6138,-235.6031,10.3282,13.7481
0.9736,-0.699,0.6194,-225.3664,18.7786,16.5038
0.9919,-0.6846,0.6167,-216.2824,27.1832,19.1374
1.0117,-0.6682,0.6143,-207.1527,35.6107,20.9771
1.0288,-0.6638,0.6077,-198.084,43.8931,22.5802
1.0479,-0.6431,0.5964,-189.8015,51.626,23.5878
1.0488,-0.6399,0.5847,-181.5878,58.2595,24.2977
1.0627,-0.6233,0.5735,-173.9618,63.8397,24.4427
1.0674,-0.6067,0.5437,-167.0229,68.5573,24.8168
1.0693,-0.5886,0.5159,-160.9466,71.6947,24.0458
1.0627,-0.5742,0.4705,-155.6794,74.1374,23.4351
1.0637,-0.552,0.4353,-151.1603,75.5802,22.2748
1.0596,-0.5317,0.4009,-148.0076,75.4351,20.4046
1.0442,-0.5327,0.3811,-146.0534,73.7786,18.3588
1.0369,-0.5312,0.3669,-145.2748,70.5573,16.2137
1.0227,-0.5295,0.3328,-145.2366,66.4427,13.855
1.0217,-0.502,0.2979,-146.1603,61.6489,11.7634
1.011,-0.4829,0.2759,-147.687,56.5344,9.9389
1.0,-0.4509,0.2625,-149.5573,51.3817,8.2748
1.0012,-0.4373,0.2471,-152.3664,46.1908,7.0611
0.999,-0.426,0.2009,-155.1603,42.0687,6.4427
1.0037,-0.428,0.1646,-158.2977,39.1603,5.9389
1.0051,-0.4297,0.1448,-161.5038,36.8931,6.2214
1.0093,-0.447,0.1233,-165.313,34.3969,6.9313
1.0195,-0.4714,0.1099,-168.9771,33.0229,7.8473
1.0249,-0.4749,0.0964,-172.7863,32.0763,9.0916
1.0369,-0.4954,0.1016,-176.8702,31.4275,10.6947
1.0513,-0.4963,0.1145,-180.6107,31.9618,12.1145
1.0662,-0.4988,0.1357,-184.229,33.145,13.4275
1.0835,-0.5088,0.1841,-187.4351,34.2519,14.7252
1.0999,-0.5186,0.2378,-190.1908,35.2137,15.6336
1.1086,-0.5203,0.2646,-192.229,36.6336,16.3282
1.1301,-0.5471,0.3135,-193.6794,37.6183,16.3969
1.1418,-0.5742,0.3696,-194.1985,38.7481,16.6565
1.1477,-0.6064,0.4321,-193.9084,39.084,16.3664
1.1567,-0.6353,0.4888,-192.9313,39.0153,15.9695
1.1614,-0.6575,0.5483,-190.9084,38.3206,16.1069
1.1736,-0.6882,0.5776,-188.2443,37.313,15.7863
1.1672,-0.7078,0.6304,-184.9695,36.5725,15.6031
1.1873,-0.7053,0.6499,-181.1603,35.5115,15.4809
1.1838,-0.7021,0.6819,-176.2595,33.313,15.7481
1.2029,-0.7112,0.7034,-171.2595,31.5038,15.6489
1.207,-0.7092,0.7327,-165.9389,29.5038,15.4046
1.2236,-0.7014,0.7444,-160.5878,28.3282,15.3664
1.2205,-0.709,0.7412,-155.4809,26.9389,14.4504
1.2424,-0.6909,0.748,-150.2519,24.7405,13.5344
1.2498,-0.6809,0.7385,-145.4427,24.084,12.5344
1.2566,-0.6797,0.7322,-141.2137,22.9542,11.2519
1.2607,-0.6824,0.7214,-136.6565,20.0229,9.2137
1.2615,-0.6682,0.7163,-133.0076,17.8855,7.6107
1.2798,-0.6641,0.6985,-129.7023,15.9237,5.8473
1.261,-0.6453,0.6873,-127.374,13.771,3.5649
1.2695,-0.6287,0.686,-125.2214,11.7481,1.5802
1.2661,-0.6104,0.7034,-123.5267,8.6641,-0.3359
1.2678,-0.6006,0.6931,-121.9237,4.9695,-3.1298
1.2639,-0.5991,0.6821,-120.7863,2.5573,-5.1145
1.2625,-0.603,0.6804,-120.0,0.1527,-6.9389
1.2622,-0.6042,0.6704,-119.0534,-1.0229,-8.7023
1.2683,-0.6064,0.6655,-117.8397,-2.6031,-10.6565
1.2693,-0.615,0.6741,-116.8015,-3.3435,-12.3282
1.2549,-0.6174,0.6643,-115.084,-2.8244,-13.9771
1.2561,-0.6121,0.6841,-113.4504,-2.4962,-15.7939
1.2483,-0.5996,0.6995,-111.5802,-2.374,-16.4733
1.2349,-0.6055,0.6885,-109.2672,-1.5573,-17.5496
1.2185,-0.5903,0.696,-106.7176,0.0687,-18.084
1.2104,-0.6011,0.7002,-104.3282,2.0229,-18.1069
1.1997,-0.6013,0.7034,-101.8321,4.2977,-18.1298
1.176,-0.6077,0.6941,-98.9542,6.5802,-17.8702
1.1682,-0.6033,0.7117,-96.1221,8.8168,-17.1374
1.1628,-0.6072,0.7131,-93.0687,11.2061,-16.0763
1.1482,-0.6011,0.7424,-90.0382,13.2366,-15.4275
1.1389,-0.5913,0.7583,-86.9618,14.5496,-14.4427
1.1292,-0.595,0.7812,-83.8702,16.1756,-13.6641
1.1221,-0.5903,0.7834,-80.4733,17.3282,-12.5573
1.1116,-0.5815,0.7986,-76.7557,18.7099,-11.7786
1.1116,-0.582,0.804,-72.6031,19.6412,-11.1069
1.0928,-0.5769,0.8127,-68.1374,20.8168,-10.0992
1.0884,-0.5747,0.823,-63.4962,21.458,-9.3893
1.0859,-0.5864,0.8191,-58.6565,21.5191,-8.7557
1.0698,-0.5833,0.8242,-53.3969,21.855,-8.145
1.063,-0.5674,0.8169,-47.9237,21.458,-7.2137
1.0581,-0.5562,0.8066,-42.0611,21.3511,-6.0534
1.0605,-0.5493,0.7947,-36.3969,20.7328,-5.5649
1.0571,-0.5398,0.7786,-30.8702,19.9542,-4.855
1.0532,-0.5342,0.7507,-25.6794,19.0153,-3.5878
1.052,-0.5242,0.7275,-21.0382,18.0076,-2.9389
1.0461,-0.5054,0.7043,-16.1756,17.2214,-2.6336
1.0435,-0.5005,0.6562,-11.9924,16.458,-2.2901
1.043,-0.4817,0.6248,-8.4962,15.7176,-2.0992
1.0308,-0.4697,0.6003,-5.0229,14.7328,-2.0458
1.0227,-0.4521,0.5652,-2.0534,13.4733,-2.0458
1.0173,-0.436,0.5269,0.374,11.9466,-2.1985
1.0117,-0.4146,0.4985,2.7481,10.3893,-2.1832
1.0085,-0.4082,0.4814,4.2443,8.7786,-2.7481
0.9988,-0.3923,0.4644,5.9695,7.1374,-2.6336
0.9937,-0.3821,0.4241,7.1527,5.8397,-2.542
0.9846,-0.3743,0.405,8.5496,4.7939,-2.4962
0.9795,-0.3647,0.3843,9.5496,3.7405,-2.1069
0.9717,-0.3494,0.3572,10.6565,2.6412,-1.8931
0.9707,-0.3428,0.3437,11.5649,1.7405,-1.4427
0.9734,-0.3391,0.3162,12.2672,0.9542,-0.4885
0.9727,-0.3416,0.3052,13.0,0.2366,0.2519
0.978,-0.3352,0.2786,13.9008,0.0,1.084
0.9822,-0.3359,0.2583,14.7099,0.3053,2.1145
0.9937,-0.3342,0.2444,15.4275,0.7176,3.0458
1.0085,-0.3281,0.2107,16.0076,1.626,3.8397
1.0256,-0.3303,0.1821,16.6947,3.0153,4.5038
1.0396,-0.324,0.1707,17.2901,4.8397,5.0305
1.0586,-0.3267,0.155,17.5725,7.084,5.3359
1.0752,-0.321,0.1392,17.6794,9.2137,5.374
1.0962,-0.3176,0.1238,17.5496,11.2366,5.3053
1.1096,-0.3091,0.1062,17.6565,13.6183,4.9084
1.125,-0.3127,0.1035,17.4656,15.5267,4.0076
1.1257,-0.3054,0.0967,17.1908,16.626,3.2519
1.1406,-0.3069,0.0981,16.9008,17.2901,2.1756
1.1563,-0.3049,0.0947,16.5573,17.7099,0.5573
1.1633,-0.2998,0.0815,15.9389,18.0534,-1.2366
1.1655,-0.3044,0.0764,15.7023,18.542,-3.3511
1.178,-0.3044,0.0635,14.8779,18.9924,-5.626
1.1755,-0.3013,0.0605,14.3435,19.5573,-7.8397
1.1711,-0.2888,0.0408,13.687,20.0763,-10.2443
1.1694,-0.281,0.041,13.0534,20.2214,-12.5496
1.1543,-0.2727,0.043,12.374,20.0382,-14.7405
1.1382,-0.2732,0.0366,11.4275,19.6183,-17.0611
1.1223,-0.2717,0.0403,10.4885,18.5649,-18.8702
1.1047,-0.2686,0.0403,9.4046,17.6107,-20.4656
1.0806,-0.2693,0.0425,8.2366,16.3282,-21.916
1.0679,-0.2749,0.0376,7.084,14.4733,-22.8931
1.0408,-0.2644,0.0447,6.2824,12.5954,-23.8779
1.0405,-0.2588,0.0657,5.2595,10.313,-24.8855
1.0098,-0.2554,0.0576,4.5878,8.4656,-25.8321
1.0059,-0.2527,0.0544,4.1374,6.7252,-26.6031
0.9768,-0.2566,0.0667,3.5878,4.3282,-26.9695
0.9653,-0.2539,0.0688,2.771,1.8168,-27.1756
0.938,-0.2605,0.0823,2.4656,-0.5878,-27.0992
0.9209,-0.2473,0.0928,2.2519,-3.3435,-26.4275
0.9104,-0.2449,0.0999,2.3282,-5.7634,-25.9924
0.8931,-0.2307,0.1008,2.626,-8.0076,-25.229
0.8887,-0.231,0.0962,2.8321,-10.4275,-24.4427
0.8904,-0.2273,0.1189,3.2366,-12.3664,-23.458
0.8777,-0.2251,0.1072,3.9313,-13.7252,-22.8168
0.8884,-0.238,0.0979,4.8321,-14.5115,-21.8626
0.8845,-0.2388,0.1104,5.6336,-15.6336,-20.6794
0.8838,-0.2251,0.1055,6.4046,-15.9771,-19.229
0.8887,-0.2156,0.0974,7.5115,-15.6489,-17.8855
0.894,-0.2092,0.1052,8.7786,-14.9466,-16.0992
0.907,-0.2131,0.095,9.6031,-13.8473,-14.6565
0.9048,-0.2163,0.0903,10.9466,-11.9313,-13.3053
0.916,-0.2241,0.0801,12.3206,-10.2748,-11.8779
0.936,-0.2222,0.0928,13.7634,-7.7252,-10.3969
0.9121,-0.2358,0.0835,15.5115,-5.6336,-9.4122
0.9919,-0.2236,0.0911,16.8626,-3.6031,-9.1298
0.9551,-0.2473,0.062,17.9313,-1.4504,-8.7328
0.9534,-0.241,0.0906,19.1603,-3.4275,-8.5878
0.9722,-0.2268,0.0681,20.1832,-1.1221,-7.2977
0.9729,-0.2139,0.0205,21.3435,4.3969,-5.8931
0.9363,-0.2334,0.0935,22.8855,2.0611,-5.4275
0.967,-0.2278,0.0664,23.9389,1.1908,-5.2977
0.9568,-0.2341,0.0361,24.855,3.0229,-4.8397
0.9609,-0.2402,0.0369,25.6031,1.6489,-5.1985
0.9824,-0.2292,-0.0095,26.1527,1.7557,-4.9771
0.9734,-0.2334,-0.0244,26.3511,3.3206,-4.2977
0.9641,-0.2283,-0.0151,26.4122,2.7252,-3.7634
0.9812,-0.2063,-0.0613,26.8397,2.4198,-3.0305
0.981,-0.2019,-0.0667,26.8626,2.0,-2.2137
0.9907,-0.2048,-0.0776,26.7252,0.5115,-1.6031
0.9851,-0.2026,-0.1055,26.1374,0.3435,-1.6565
0.9917,-0.2026,-0.1196,25.6031,-0.4351,-1.7557
0.9937,-0.2078,-0.1152,24.7328,-1.5573,-2.1069
1.0105,-0.1868,-0.1404,23.4504,-2.3206,-2.4427
1.0056,-0.1824,-0.1516,22.2977,-3.2595,-3.0229
1.0125,-0.1687,-0.1501,20.8168,-4.5573,-3.5038
1.0151,-0.1724,-0.1589,19.3282,-5.5344,-4.1985
1.0242,-0.1746,-0.1733,17.7023,-6.5496,-4.8015
1.0198,-0.1731,-0.179,16.2595,-7.855,-5.7176
1.0234,-0.1738,-0.1707,14.6565,-8.4962,-6.6412
1.0256,-0.1743,-0.1687,12.9389,-9.3359,-7.4275
1.0344,-0.178,-0.1724,11.5344,-9.8855,-7.9313
1.0364,-0.1765,-0.1672,10.145,-10.229,-8.5649
1.0239,-0.1821,-0.1682,8.8779,-10.687,-9.1298
1.0298,-0.1809,-0.1575,7.7557,-10.9924,-9.7481
1.0322,-0.178,-0.1545,6.9618,-10.8473,-9.916
1.0298,-0.1816,-0.147,6.0534,-10.6641,-10.3053
1.0229,-0.1858,-0.1431,5.229,-10.5496,-10.5573
1.0181,-0.1909,-0.1326,4.771,-10.2748,-10.5191
1.0132,-0.2024,-0.1279,4.4962,-9.855,-10.313
1.0107,-0.2026,-0.1179,4.2672,-9.2061,-9.9389
1.0076,-0.1995,-0.1125,3.9771,-8.1145,-9.1145
1.0,-0.2051,-0.1147,4.3435,-6.9084,-8.4656
0.9944,-0.2146,-0.1001,4.6336,-5.7176,-7.9847
0.9912,-0.2166,-0.1025,4.7557,-4.458,-7.0
0.9902,-0.2129,-0.1055,5.2137,-3.2366,-6.1756
0.9871,-0.2166,-0.0967,5.687,-1.855,-5.1527
0.9863,-0.2112,-0.1033,6.1985,-0.6336,-3.8855
0.9841,-0.2119,-0.1035,6.5802,1.1221,-2.7328
0.9788,-0.2141,-0.093,7.3664,2.0153,-1.7634
0.9805,-0.2102,-0.0898,7.4198,3.0687,-0.3511
0.988,-0.2078,-0.0916,7.9008,4.2061,0.7634
0.9897,-0.2087,-0.0955,8.1908,5.229,1.7634
0.9824,-0.208,-0.0918,8.4198,5.7405,2.7252
0.9861,-0.2083,-0.1062,8.6336,6.0305,3.2595
0.9836,-0.2053,-0.0994,8.6489,6.1069,3.9847
0.9983,-0.2048,-0.0916,8.6336,6.1985,4.2137
0.9976,-0.2046,-0.0967,8.3817,6.313,4.5802
1.0015,-0.2051,-0.105,7.9924,5.1221,4.4885
1.0078,-0.1902,-0.1128,7.5344,4.0305,4.4275
1.0085,-0.1975,-0.1128,6.7557,3.9313,4.2977
1.0051,-0.199,-0.103,6.1527,2.6565,3.9084
1.0127,-0.1951,-0.1108,5.313,1.1603,3.4656
1.0034,-0.1919,-0.1216,4.4656,0.2595,2.9618
1.0061,-0.1936,-0.1108,3.6489,-1.1832,2.3969
1.0132,-0.1904,-0.1084,2.5954,-2.1603,2.1298
1.0083,-0.1895,-0.114,1.5573,-3.0916,1.3359
1.0034,-0.1865,-0.1089,0.8855,-3.6641,1.3435
1.002,-0.188,-0.1101,0.0534,-4.3282,0.9084
0.9993,-0.1843,-0.104,-0.9847,-5.0382,0.4733
0.9937,-0.1875,-0.0962,-1.5649,-5.4656,0.3817
0.9812,-0.1882,-0.0935,-2.5802,-6.374,0.3588
0.9844,-0.1865,-0.0874,-3.1221,-6.8168,0.2672
0.98,-0.1843,-0.0835,-3.7099,-7.5725,0.8779
0.9771,-0.1917,-0.0623,-4.1603,-7.9771,0.9237
0.9714,-0.1877,-0.0598,-4.4962,-8.1527,1.374
0.9658,-0.1921,-0.0457,-4.9542,-8.7405,1.9924
0.9656,-0.1919,-0.051,-5.1832,-9.2061,2.7786
0.9666,-0.1965,-0.0352,-5.1985,-9.0916,3.1832
0.9683,-0.1997,-0.0305,-5.3511,-9.3893,3.8931
0.9756,-0.2029,-0.0344,-5.2519,-9.5115,4.6412
0.978,-0.2095,-0.0251,-5.1679,-9.8092,5.4885
0.9878,-0.2161,-0.0117,-4.7252,-9.9084,6.1679
0.9861,-0.219,-0.0173,-4.3588,-9.9008,7.1069
1.0044,-0.2346,-0.0107,-3.8092,-9.7939,8.1374
1.0122,-0.2319,-0.0044,-3.2519,-9.5191,8.7863
1.0195,-0.2402,-0.0105,-2.6412,-9.084,9.8244
1.0308,-0.2373,-0.0061,-2.0076,-8.145,10.0076
1.0486,-0.2412,-0.0095,-1.2443,-7.2595,10.6641
1.0552,-0.2397,-0.0044,-0.3511,-6.2214,11.0305
1.0691,-0.2437,-0.0103,0.4046,-4.9771,11.1069
1.0723,-0.2488,-0.0017,1.3664,-4.0305,11.0916
1.0884,-0.2422,-0.0107,2.1603,-3.2137,10.8626
1.0977,-0.2559,-0.0005,2.8702,-2.3588,10.5191
1.1084,-0.2471,-0.0037,3.7405,-1.5573,10.0534
1.1177,-0.2483,-0.0066,4.4885,-1.2519,9.6641
1.1221,-0.2454,-0.0049,5.1832,-1.1298,9.1527
