ax,ay,az,gx,gy,gz
1.4043,0.0405,0.2825,54.4885,-6.9237,28.7023
1.4199,0.0325,0.2856,55.0534,-8.5191,27.7481
1.4333,0.0281,0.2893,55.6412,-10.4504,26.2061
1.4485,0.0171,0.3015,55.9466,-12.6489,24.5496
1.4729,0.0042,0.3215,56.5725,-15.3435,22.9466
1.4834,-0.0007,0.3379,57.4198,-18.6336,21.4046
1.5125,-0.0059,0.3501,58.0458,-21.2443,19.8321
1.5266,-0.0132,0.3713,58.9695,-24.5267,17.6565
1.5361,-0.0215,0.3772,59.7252,-27.6183,15.5878
1.5566,-0.0298,0.3992,60.5344,-31.0,13.5573
1.5608,-0.0288,0.4077,61.4656,-35.084,11.8779
1.5857,-0.032,0.4246,62.5725,-38.1527,10.0076
1.6028,-0.0376,0.4248,64.0382,-40.7786,8.0611
1.627,-0.0432,0.4285,65.6183,-43.1298,6.4275
1.655,-0.0486,0.4258,67.4809,-44.771,4.7176
1.6704,-0.0569,0.4429,69.9618,-45.4427,2.8168
1.7019,-0.0559,0.4385,72.3893,-45.4504,1.3435
1.7427,-0.062,0.429,74.9084,-43.5954,0.1298
1.7507,-0.0642,0.4341,77.8473,-40.6947,-1.313
1.7805,-0.0757,0.4446,81.4046,-36.7786,-2.7939
1.8135,-0.0879,0.4358,85.1679,-32.6183,-4.3206
1.8447,-0.0935,0.4331,89.2901,-27.1374,-5.5344
1.8745,-0.0952,0.4287,93.2824,-21.0382,-7.1832
1.9023,-0.1155,0.4268,97.3817,-14.2443,-8.7252
1.9231,-0.1252,0.4365,101.7557,-7.0,-10.6641
1.9417,-0.1436,0.4355,106.1832,-0.0153,-13.2061
1.9692,-0.1567,0.4482,110.2137,6.5649,-15.4656
1.95,-0.1655,0.4614,114.6031,12.5344,-18.2672
1.9685,-0.1704,0.49,118.7634,17.3053,-21.0763
1.959,-0.1731,0.5017,122.3588,21.2137,-24.2977
1.9612,-0.188,0.5176,126.4046,23.9466,-27.7252
1.9585,-0.1965,0.5359,130.2443,25.7634,-31.7252
1.9504,-0.2073,0.5498,133.771,26.2366,-35.5649
1.9412,-0.218,0.572,137.145,25.5878,-39.7099
1.926,-0.2314,0.5979,140.2748,23.8397,-44.2443
1.9202,-0.2354,0.5984,143.0382,20.8244,-49.0076
1.897,-0.2444,0.6104,145.6947,17.4046,-53.3282
1.8777,-0.2571,0.6187,148.1679,13.0687,-57.7176
1.8569,-0.2727,0.6313,150.4427,8.4504,-62.4733
1.8372,-0.2856,0.6216,152.4657,2.9618,-66.7634
1.8145,-0.2917,0.644,154.7557,-2.8473,-71.0305
1.791,-0.283,0.6531,156.916,-8.7939,-75.2061
1.7729,-0.2896,0.6462,158.5878,-14.7023,-79.1756
1.7634,-0.2937,0.6482,160.6183,-21.1221,-82.6718
1.7458,-0.2935,0.6399,162.9771,-27.2443,-86.313
1.7192,-0.3086,0.6382,165.6641,-34.5573,-90.5496
1.6951,-0.3081,0.6411,168.2061,-40.6489,-94.3588
1.6902,-0.3135,0.6277,171.0,-46.0076,-97.4198
1.6685,-0.3228,0.6353,173.3588,-51.0305,-101.7252
1.6421,-0.3213,0.6248,175.9084,-55.6718,-104.9618
1.6216,-0.3276,0.6116,178.5954,-59.5802,-108.0916
1.6035,-0.3286,0.5957,180.9695,-62.7481,-111.229
1.5742,-0.3152,0.5886,183.5573,-65.3282,-113.2137
1.5552,-0.3215,0.5769,186.8092,-67.0611,-115.2214
1.5203,-0.3286,0.5745,189.6641,-68.5191,-116.9695
1.491,-0.3342,0.5649,192.4351,-69.855,-118.3206
1.4888,-0.3408,0.5439,195.229,-70.5038,-119.1145
1.4617,-0.3408,0.5439,197.8397,-70.3511,-119.855
1.4478,-0.3372,0.5308,201.0992,-69.7252,-119.8931
1.4143,-0.3459,0.5291,204.2595,-69.2824,-119.4351
1.3984,-0.3533,0.5237,208.0534,-67.7863,-119.0229
1.3838,-0.3611,0.4993,211.7405,-65.7634,-118.3969
1.3682,-0.374,0.501,215.6488,-63.2748,-117.7863
1.3601,-0.3882,0.4739,219.6947,-59.7557,-116.4504
1.3442,-0.3892,0.4827,223.8473,-57.1221,-115.3664
1.3257,-0.4048,0.4902,228.9618,-54.5573,-113.8473
1.3137,-0.4087,0.4707,233.3359,-51.3511,-112.9695
1.2981,-0.4158,0.4727,238.1832,-48.3206,-111.7405
1.2905,-0.4312,0.4944,242.9771,-47.1221,-110.542
1.2864,-0.446,0.4907,247.6336,-46.1679,-109.7328
1.2832,-0.4602,0.4868,250.1298,-45.3359,-108.7328
1.2681,-0.4712,0.4836,250.1298,-45.1298,-107.6183
1.2717,-0.4761,0.4763,250.1298,-44.5878,-106.6107
1.2676,-0.4939,0.467,250.1298,-42.9313,-106.0534
1.2639,-0.5117,0.4668,250.1298,-41.6565,-106.1832
1.2598,-0.5188,0.4573,250.1298,-40.4427,-106.0
1.2625,-0.5281,0.4529,250.1298,-38.7099,-106.2977
1.2422,-0.5405,0.4426,250.1298,-37.8855,-107.1527
1.2429,-0.5537,0.4402,250.1298,-37.4351,-107.8779
1.2217,-0.5564,0.4309,250.1298,-36.5878,-108.7786
1.2019,-0.575,0.4268,250.1298,-37.5496,-110.5267
1.1965,-0.5815,0.4431,250.1298,-39.7405,-112.3511
1.1829,-0.5854,0.4338,250.1298,-44.2137,-115.3893
1.1365,-0.6001,0.4612,250.1298,-50.8092,-118.8473
1.1194,-0.5879,0.4448,250.1298,-57.2901,-122.2366
1.1309,-0.5686,0.3931,250.1298,-61.0382,-124.4809
1.1152,-0.5527,0.3228,250.1298,-61.9618,-125.7481
1.0955,-0.5449,0.2649,250.1298,-60.8779,-125.6183
1.0769,-0.5444,0.2117,250.1298,-58.8015,-124.8779
1.051,-0.5388,0.1763,250.1298,-56.4046,-123.7328
1.0137,-0.5437,0.1863,250.1298,-55.458,-123.0534
0.9863,-0.5562,0.1343,250.1298,-56.145,-122.8931
0.9658,-0.5569,0.095,250.1298,-58.0458,-122.7481
0.9465,-0.5535,0.0579,250.1298,-60.3511,-122.9466
0.936,-0.54,0.0051,250.1298,-62.6718,-123.0229
0.9165,-0.5232,-0.0649,250.1298,-63.9847,-123.3588
0.9075,-0.4934,-0.1179,250.1298,-63.6336,-123.4046
0.8943,-0.4824,-0.1802,250.1298,-62.5725,-122.9389
0.8767,-0.4778,-0.1636,250.1298,-60.6183,-122.4657
0.8633,-0.4614,-0.2429,250.1298,-58.542,-121.4122
0.8367,-0.4551,-0.2546,250.1298,-57.4351,-120.6107
0.8149,-0.4429,-0.2683,250.1298,-56.7252,-119.8702
0.7969,-0.4382,-0.2607,250.1298,-57.0382,-118.9008
0.7932,-0.4331,-0.2744,250.1298,-57.8244,-118.2366
0.7979,-0.4382,-0.2888,250.1298,-60.9695,-118.3664
0.7979,-0.4353,-0.2773,250.1298,-66.0153,-118.6489
0.7185,-0.4639,-0.2588,250.1298,-73.145,-120.2214
0.7327,-0.4639,-0.2334,250.1298,-83.7405,-123.1527
0.7419,-0.4551,-0.241,250.1298,-95.8779,-126.3893
0.7444,-0.4492,-0.2517,250.1298,-103.5954,-130.2672
0.7131,-0.4414,-0.2092,250.1298,-111.9313,-133.7481
0.665,-0.4419,-0.1965,250.1298,-123.6412,-137.855
0.6792,-0.408,-0.2896,250.1298,-128.4733,-139.7786
0.709,-0.3652,-0.4739,250.1298,-121.6565,-138.6412
0.7341,-0.3386,-0.5989,250.1298,-108.4733,-134.8397
0.6982,-0.3235,-0.6946,250.1298,-94.9695,-129.7786
0.6831,-0.3289,-0.7563,250.1298,-79.7099,-123.7023
0.6436,-0.3625,-0.7585,250.1298,-68.4885,-117.6565
0.6091,-0.3809,-0.7512,250.1298,-63.2137,-112.5802
0.5759,-0.3826,-0.719,250.1298,-58.7328,-107.4275
0.5681,-0.3694,-0.7551,250.1298,-54.6489,-102.6489
0.5776,-0.3625,-0.7866,250.1298,-51.6412,-98.687
0.5764,-0.3547,-0.8425,250.1298,-48.7328,-96.0458
0.6084,-0.3262,-0.8867,250.1298,-44.0,-92.2595
0.6382,-0.2949,-0.9463,250.1298,-37.9084,-89.6718
0.6521,-0.28,-0.9763,250.1298,-31.4046,-86.855
0.6794,-0.2646,-0.988,250.1298,-25.0458,-84.1374
0.6758,-0.2627,-0.9841,250.1298,-19.6489,-82.5038
0.686,-0.2551,-0.9648,250.1298,-16.6947,-81.6031
0.6858,-0.2559,-0.9521,250.1298,-15.7328,-81.1985
0.6882,-0.2449,-0.9714,250.1298,-16.0305,-81.4733
0.6799,-0.249,-0.9736,250.1298,-18.4122,-81.9313
0.6892,-0.2495,-0.9919,250.1298,-21.6412,-82.8855
0.6865,-0.2354,-1.0161,250.1298,-24.9466,-84.3817
0.6868,-0.2368,-1.0681,250.1298,-28.6107,-85.6718
0.689,-0.2373,-1.0969,250.1298,-32.2366,-86.8626
0.6812,-0.2356,-1.1145,250.1298,-36.2061,-88.2672
0.6836,-0.2212,-1.1597,250.1298,-39.4427,-89.8321
0.6882,-0.2134,-1.1802,250.1298,-43.0534,-91.6489
0.6829,-0.2041,-1.2244,250.1298,-45.9389,-93.4122
0.6919,-0.1948,-1.2727,250.1298,-48.3206,-93.6947
0.7017,-0.1782,-1.3088,250.1298,-50.3511,-94.1985
0.7158,-0.1746,-1.3413,244.3206,-51.3664,-95.2595
0.7175,-0.1638,-1.394,238.229,-51.4122,-95.7252
0.7288,-0.1619,-1.4255,232.3282,-50.8702,-94.9313
0.7292,-0.1782,-1.4644,226.1069,-49.6565,-94.2901
0.7434,-0.1836,-1.4958,219.7863,-48.6107,-94.9008
0.7454,-0.1863,-1.5291,213.5114,-47.1374,-95.8168
0.7373,-0.1792,-1.5459,206.9313,-45.3359,-97.6565
0.7432,-0.179,-1.5728,200.7252,-44.0382,-95.771
0.738,-0.1687,-1.5986,194.8168,-42.687,-97.5191
0.7349,-0.1638,-1.6196,188.8855,-41.7405,-96.687
0.739,-0.1663,-1.6353,182.458,-40.8321,-96.9695
0.7234,-0.1763,-1.6543,174.7557,-40.4046,-96.6489
0.7236,-0.1812,-1.6755,168.5649,-39.374,-96.4962
0.7256,-0.1826,-1.7065,162.1756,-38.7176,-97.0153
0.7258,-0.178,-1.7195,155.6183,-37.855,-94.4198
0.7227,-0.1748,-1.7317,149.0382,-36.6031,-94.229
0.7161,-0.1667,-1.749,142.7557,-35.6718,-93.916
0.708,-0.1702,-1.7522,136.1374,-34.7634,-93.2443
0.7024,-0.155,-1.7471,129.6336,-33.9237,-92.9695
0.7004,-0.1538,-1.7446,122.313,-32.9695,-93.3435
0.7019,-0.1545,-1.7375,115.8702,-31.9771,-93.0
0.7087,-0.1545,-1.7402,111.8244,-30.9466,-91.9771
0.7063,-0.1592,-1.7419,105.5573,-29.6947,-89.313
0.7166,-0.1587,-1.7463,100.145,-28.0916,-88.9466
0.7036,-0.1665,-1.7429,94.8168,-25.8931,-87.7023
0.7134,-0.1653,-1.7429,90.2366,-23.5191,-85.9924
0.7124,-0.1677,-1.7346,85.8244,-20.8626,-84.9466
0.7158,-0.1616,-1.7249,81.7023,-17.8779,-83.7863
0.7178,-0.156,-1.7322,78.0229,-14.8321,-82.5115
0.7244,-0.1562,-1.7278,74.1908,-11.5038,-81.3053
0.7251,-0.1533,-1.7212,70.5802,-8.2977,-79.9389
0.7236,-0.1414,-1.7153,66.7939,-4.9084,-78.8702
0.7178,-0.135,-1.719,63.1527,-1.771,-77.7863
0.729,-0.1213,-1.6963,59.3282,0.9924,-76.5725
0.7283,-0.1133,-1.6895,55.8015,3.3359,-75.3817
0.7183,-0.1113,-1.687,51.6718,5.3664,-74.4122
0.7227,-0.1033,-1.6768,47.458,7.0458,-73.3511
0.7192,-0.103,-1.6829,43.458,8.0687,-72.7252
0.7161,-0.0991,-1.6819,38.9847,8.9313,-71.8321
0.7139,-0.0911,-1.6741,34.4046,9.084,-71.1145
0.72,-0.0803,-1.6741,29.6031,8.6565,-70.855
0.7214,-0.0835,-1.6726,24.4656,8.1221,-70.458
0.7151,-0.0786,-1.6873,19.5496,7.6947,-70.2366
0.7151,-0.0747,-1.6851,14.2672,7.0763,-70.1985
0.7197,-0.0684,-1.6953,9.0763,6.3206,-70.2824
0.7092,-0.062,-1.7046,3.3359,5.458,-70.1145
0.709,-0.063,-1.7053,-1.9847,4.1069,-70.1145
0.6975,-0.0627,-1.7156,-7.145,2.7863,-69.7863
0.7046,-0.063,-1.7024,-13.0534,0.6183,-69.6336
0.6873,-0.0557,-1.7112,-18.4122,-1.542,-69.6641
0.6726,-0.0745,-1.7178,-24.3511,-3.4122,-69.6183
0.6753,-0.075,-1.7124,-30.3053,-6.3664,-69.6031
0.6631,-0.0859,-1.7075,-36.4427,-10.0458,-69.1069
0.6565,-0.1047,-1.6858,-42.6565,-14.1298,-68.2977
0.6482,-0.1101,-1.6885,-49.2137,-18.5191,-67.4122
0.6494,-0.1182,-1.6838,-55.5115,-23.0992,-66.3359
0.6465,-0.1113,-1.6819,-61.7557,-27.8244,-65.4427
0.6445,-0.105,-1.6838,-67.7557,-32.3588,-64.4657
0.647,-0.1086,-1.668,-73.8015,-36.8626,-62.6794
0.6536,-0.1072,-1.6655,-79.5573,-41.1298,-61.9008
0.6533,-0.1201,-1.6597,-85.3435,-45.145,-61.1985
0.6641,-0.136,-1.6646,-90.9313,-48.9771,-59.8855
0.6641,-0.1484,-1.6565,-96.3664,-52.8321,-59.0763
0.6743,-0.1584,-1.6479,-101.626,-56.6718,-58.4656
0.6753,-0.1592,-1.6499,-106.6718,-60.4885,-57.5115
0.6821,-0.1663,-1.635,-112.313,-64.4733,-56.3359
0.6824,-0.1685,-1.5955,-118.0382,-69.0611,-55.5954
0.6956,-0.1638,-1.5999,-122.8626,-73.4885,-53.9847
0.6956,-0.1621,-1.5945,-127.1221,-78.0076,-52.9237
0.7031,-0.1689,-1.5654,-131.7099,-82.3053,-52.1603
0.7112,-0.1592,-1.5557,-136.1145,-87.1221,-51.1069
0.7278,-0.1611,-1.5322,-139.9847,-92.9313,-49.8473
0.7356,-0.1638,-1.54,-144.0,-96.9695,-48.687
0.7539,-0.166,-1.5376,-147.8244,-98.2901,-47.7481
0.7717,-0.1638,-1.5361,-151.5878,-102.0,-46.6107
0.8027,-0.1555,-1.5544,-155.3206,-104.5954,-45.6565
0.811,-0.155,-1.5586,-158.626,-106.4198,-44.9237
0.8313,-0.1409,-1.5728,-162.1145,-107.9771,-43.9389
0.8618,-0.1406,-1.585,-165.5038,-108.5649,-43.2137
0.8958,-0.1311,-1.6023,-169.0458,-108.6489,-42.6183
0.928,-0.1184,-1.6162,-172.7863,-108.0611,-42.458
0.9541,-0.1094,-1.6445,-176.5343,-106.5191,-42.2519
0.9832,-0.095,-1.6616,-180.6565,-105.4504,-42.7328
1.0105,-0.0955,-1.678,-185.1527,-104.2595,-43.5802
1.0317,-0.0891,-1.6951,-189.6412,-102.6565,-44.2137
1.0391,-0.0818,-1.7012,-194.3512,-101.0382,-45.084
1.0659,-0.0737,-1.7341,-199.8702,-98.2519,-46.6412
1.0901,-0.0684,-1.7573,-205.313,-96.4198,-48.1374
1.0938,-0.0383,-1.7798,-211.1527,-92.7405,-49.9542
1.1211,-0.0317,-1.7957,-217.1679,-92.1221,-52.0076
1.126,-0.0237,-1.8018,-223.313,-88.5267,-53.7634
1.1204,-0.0359,-1.8357,-229.4122,-86.4198,-56.1985
1.1165,-0.053,-1.8547,-236.1221,-84.7252,-58.5115
1.1135,-0.0662,-1.8584,-243.145,-83.458,-60.7481
1.106,-0.0691,-1.8701,-250.1374,-82.374,-62.8626
1.0964,-0.073,-1.8777,-250.1374,-81.4122,-64.9695
1.0881,-0.0708,-1.8774,-250.1374,-80.5878,-66.7328
1.0725,-0.0627,-1.8772,-250.1374,-79.9389,-68.2061
1.0488,-0.0588,-1.8652,-250.1374,-79.5191,-69.4733
1.0342,-0.063,-1.854,-250.1374,-78.855,-70.6718
1.0081,-0.0554,-1.8306,-250.1374,-78.6412,-71.7481
0.9768,-0.053,-1.8049,-250.1374,-78.2977,-72.7176
0.967,-0.0657,-1.7903,-250.1374,-78.4122,-73.7176
0.9353,-0.0757,-1.7676,-250.1374,-78.5038,-74.0458
0.9031,-0.0767,-1.7212,-250.1374,-79.1756,-74.2901
0.8813,-0.0784,-1.679,-250.1374,-80.7557,-74.6107
0.8513,-0.0742,-1.6194,-250.1374,-83.2824,-74.4122
0.8176,-0.073,-1.5911,-250.1374,-86.2595,-74.5802
0.7854,-0.0896,-1.5474,-250.1374,-89.5725,-73.9847
0.7649,-0.1003,-1.5159,-250.1374,-92.374,-73.1679
0.7498,-0.105,-1.4888,-250.1374,-96.1069,-71.9237
0.7129,-0.1052,-1.4226,-250.1374,-100.3588,-70.8779
0.6958,-0.0908,-1.3752,-250.1374,-106.3511,-69.0305
0.6694,-0.0872,-1.3293,-250.1374,-111.7557,-67.2366
0.6401,-0.0774,-1.2705,-250.1374,-117.6794,-65.6336
0.6223,-0.0781,-1.2244,-250.1374,-124.3893,-63.7328
0.5981,-0.0798,-1.1929,-250.1374,-130.3817,-61.8397
0.5903,-0.0818,-1.1448,-250.1374,-136.7176,-60.0763
0.5674,-0.071,-1.0994,-250.1374,-143.3053,-58.0305
0.5613,-0.0737,-1.0669,-250.1374,-150.4198,-55.8092
0.5532,-0.0754,-1.0071,-250.1374,-159.916,-52.5725
0.5476,-0.0847,-0.9741,-250.1374,-169.6565,-49.9847
0.5571,-0.0798,-0.9592,-250.1374,-178.6947,-46.9084
0.5566,-0.0974,-0.9426,-250.1374,-187.5038,-44.145
0.5654,-0.1138,-0.9275,-250.1374,-196.4962,-41.0992
0.5737,-0.1309,-0.9124,-250.1374,-205.4657,-38.3969
0.5889,-0.1436,-0.8972,-250.1374,-214.1985,-35.626
0.5972,-0.1646,-0.8875,-250.1374,-222.2748,-33.2901
0.6172,-0.177,-0.8767,-250.1374,-230.0687,-30.8855
0.6433,-0.1921,-0.8586,-250.1374,-236.8092,-28.7863
0.6589,-0.2041,-0.8274,-250.1374,-244.458,-26.7099
0.666,-0.21,-0.8108,-250.1374,-250.1374,-24.5649
0.6963,-0.218,-0.7856,-250.1374,-250.1374,-22.8473
0.7183,-0.2358,-0.7715,-250.1374,-250.1374,-21.0687
0.741,-0.252,-0.7476,-250.1374,-250.1374,-19.4046
0.7737,-0.2659,-0.7375,-250.1374,-250.1374,-18.0
0.8013,-0.2817,-0.7407,-250.1374,-250.1374,-16.7786
0.8252,-0.3162,-0.7422,-250.1374,-250.1374,-15.4733
0.8567,-0.3464,-0.7395,-250.1374,-250.1374,-14.4275
0.8718,-0.3591,-0.7434,-250.1374,-250.1374,-13.4885
0.9124,-0.3914,-0.7437,-250.1374,-250.1374,-12.3359
0.9485,-0.4106,-0.7542,-250.1374,-250.1374,-10.8168
0.9868,-0.4097,-0.7468,-250.1374,-250.1374,-9.5573
1.0076,-0.4004,-0.7275,-250.1374,-250.1374,-8.0
1.0242,-0.3977,-0.7051,-250.1374,-250.1374,-6.145
1.0488,-0.3787,-0.6992,-250.1374,-250.1374,-4.9771
1.0649,-0.3716,-0.6833,-250.1374,-250.1374,-3.2366
1.0806,-0.3599,-0.6494,-250.1374,-241.8168,-1.5802
1.0903,-0.3545,-0.6362,-250.1374,-227.8244,0.2137
1.0996,-0.3564,-0.5903,-250.1374,-213.1221,2.2748
1.0999,-0.3494,-0.5688,-250.1374,-197.5649,4.4962
1.1035,-0.3733,-0.5398,-250.1374,-181.4657,7.3206
1.0947,-0.3691,-0.5149,-250.1374,-164.687,9.8168
1.0935,-0.3738,-0.4878,-250.1374,-147.6412,12.3435
1.0913,-0.375,-0.4382,-250.1374,-130.5649,14.9084
1.075,-0.3779,-0.4114,-250.1374,-113.7328,17.6412
1.0701,-0.3713,-0.3867,-250.1374,-97.687,19.542
1.0522,-0.3701,-0.3335,-250.1374,-82.145,20.9237
1.0371,-0.3704,-0.2583,-250.1374,-66.626,21.9389
1.0205,-0.3779,-0.2073,-250.1374,-52.2824,22.4122
1.0005,-0.3877,-0.1372,-250.1374,-38.8931,22.6794
0.9758,-0.3875,-0.0601,-250.1374,-26.5038,22.2519
0.9419,-0.4014,0.0234,-250.1374,-15.229,21.6565
0.9133,-0.405,0.0986,-250.1374,-4.687,20.9847
0.8982,-0.4067,0.1462,-250.1374,3.916,20.2214
0.8555,-0.4072,0.2424,-250.1374,11.1527,18.7786
0.8213,-0.4077,0.3472,-250.1374,16.8168,17.5191
0.79,-0.4102,0.4404,-250.1374,20.8321,16.2595
0.7573,-0.4265,0.5369,-250.1374,23.5954,14.8779
0.7219,-0.4436,0.6196,-250.1374,25.0229,13.2214
0.6909,-0.4619,0.7117,-250.1374,24.458,11.2595
0.6619,-0.4841,0.7952,-250.1374,22.6183,9.4046
0.6289,-0.5017,0.8811,-250.1374,19.3053,7.5115
0.614,-0.5088,0.9246,-250.1374,14.1756,5.3511
0.585,-0.5229,1.0164,-250.1374,7.8931,3.2366
0.5566,-0.5413,1.0979,-250.1374,0.542,1.3817
0.5259,-0.561,1.1672,-250.1374,-7.6489,-0.6489
0.5112,-0.5879,1.2441,-250.1374,-16.4122,-2.1985
0.4888,-0.6013,1.3059,-250.1374,-25.9924,-3.2366
0.4727,-0.6118,1.3755,-250.1374,-35.2977,-3.8473
0.4539,-0.595,1.4539,-250.1374,-45.2977,-4.084
0.4475,-0.5906,1.4834,-250.1374,-55.7252,-4.2595
0.4373,-0.5754,1.561,-250.1374,-65.7557,-4.3969
0.4265,-0.5732,1.6218,-250.1374,-75.2977,-4.229
0.4316,-0.5701,1.688,-250.1374,-86.916,-3.5115
0.4395,-0.5681,1.7532,-250.1374,-95.2443,-2.5878
0.4526,-0.5623,1.8159,-250.1374,-103.1679,-1.6794
0.468,-0.5376,1.885,-250.1374,-110.542,-0.3664
0.4844,-0.5354,1.9448,-250.1374,-115.5496,1.1221
0.5146,-0.5295,1.9927,-250.1374,-118.9008,2.4504
0.5374,-0.522,1.9999,-250.1374,-120.7481,4.2443
0.5659,-0.519,1.9999,-250.1374,-120.229,5.5496
0.593,-0.5154,1.9999,-250.1374,-117.2214,7.3893
0.6143,-0.5117,1.9999,-250.1374,-111.5649,9.3893
0.6382,-0.5049,1.9999,-239.8321,-104.1603,11.458
0.6631,-0.4973,1.9999,-225.4427,-92.5954,13.7557
0.679,-0.4958,1.9999,-208.9771,-82.5725,16.7863
0.6821,-0.4819,1.9999,-193.3817,-70.229,19.8473
0.698,-0.47,1.9999,-177.5038,-57.2214,23.0
0.6982,-0.4631,1.9999,-160.8779,-44.1756,26.7863
0.6936,-0.4514,1.9999,-144.5267,-30.9924,30.7252
0.6907,-0.4495,1.9999,-129.2748,-19.2901,34.3435
0.6772,-0.4314,1.9999,-112.3206,-6.8702,38.6947
0.6682,-0.4099,1.9999,-96.8092,4.1069,43.0534
0.6562,-0.3857,1.9999,-81.8168,13.3969,47.0992
0.6313,-0.3523,1.9999,-67.7023,21.687,51.2366
0.6248,-0.344,1.9999,-54.3511,29.5649,55.0611
0.5989,-0.3247,1.9999,-41.7405,35.8168,58.6947
0.5825,-0.301,1.9999,-30.3053,40.0534,61.7634
0.5781,-0.2942,1.9999,-20.855,42.9695,64.5878
0.5603,-0.2666,1.9999,-10.8855,45.1603,67.4962
0.5435,-0.2571,1.9561,-2.7252,46.0229,69.7405
0.5312,-0.2334,1.9031,4.8092,45.7863,72.313
0.5164,-0.2173,1.8518,11.1374,43.8702,74.2977
0.5205,-0.2039,1.8193,16.626,41.1221,75.4275
0.5208,-0.1824,1.7698,21.5725,37.4275,76.8168
0.521,-0.1758,1.7292,25.9618,33.5115,77.7481
0.5222,-0.1631,1.6895,29.3893,28.5114,78.2061
0.5312,-0.1587,1.6692,32.3969,23.626,78.3435
0.5442,-0.1426,1.6309,34.8473,18.6107,78.1145
0.5515,-0.1338,1.606,36.9389,13.4427,77.2672
0.564,-0.1338,1.5881,38.2748,8.3206,76.313
0.5745,-0.1272,1.5664,39.6794,2.771,75.0153
0.5891,-0.1274,1.5471,40.8702,-3.0458,73.374
0.5994,-0.1133,1.5303,41.8015,-8.1985,71.8855
0.6194,-0.1189,1.5222,42.5649,-13.3588,70.1298
0.6316,-0.1045,1.5061,43.5649,-18.0,67.9008
0.6401,-0.1062,1.5022,44.1374,-22.6794,65.8702
0.6675,-0.1094,1.4954,45.3969,-26.8931,63.2366
0.6694,-0.105,1.4805,46.4046,-29.6336,60.8626
0.6782,-0.1089,1.4756,47.9924,-31.542,58.5115
0.6892,-0.1111,1.4705,49.7557,-32.4046,55.9695
0.6985,-0.1123,1.4766,51.8626,-32.4351,53.6718
0.6985,-0.1196,1.4731,54.0382,-32.1985,51.2061
0.6919,-0.1335,1.4851,56.6183,-31.7405,49.374
0.677,-0.1355,1.4846,59.3664,-31.1298,47.458
0.6658,-0.1423,1.4944,62.8168,-30.2137,45.6489
0.6445,-0.158,1.5022,66.3817,-29.1527,44.313
0.6174,-0.1704,1.5176,70.084,-27.4198,43.5649
0.6072,-0.1689,1.5222,74.2061,-25.1832,43.0992
0.5898,-0.1702,1.5173,78.7405,-22.0458,43.3588
0.5696,-0.1738,1.5232,83.7481,-18.0382,44.084
0.5347,-0.1733,1.5254,89.2137,-12.9008,45.5878
0.5081,-0.1787,1.5237,94.9542,-6.9771,47.2977
0.4817,-0.1785,1.5249,100.9084,0.1603,49.4351
0.449,-0.1846,1.5234,107.3206,7.5573,52.1374
0.418,-0.1846,1.5244,114.4504,15.2901,55.0305
0.3997,-0.1836,1.522,122.6565,23.4886,58.6183
0.3589,-0.2039,1.5176,128.0763,31.7099,62.5725
0.3196,-0.2051,1.5198,136.2595,39.6947,67.1756
0.2861,-0.2092,1.5239,144.1374,47.2061,71.8779
0.25,-0.2258,1.5229,151.1756,53.6412,77.0534
0.207,-0.2324,1.5273,158.5954,59.374,82.1832
0.1748,-0.2407,1.5383,165.5496,64.0153,87.6412
0.1411,-0.2483,1.5369,172.9618,67.6107,93.5573
0.1257,-0.2524,1.5359,179.374,70.0763,99.0611
0.103,-0.2561,1.5537,186.626,71.4657,105.6031
0.0784,-0.2566,1.5564,193.3588,71.6412,111.3511
0.0613,-0.25,1.5598,200.4809,71.0305,117.2366
0.052,-0.2478,1.5713,207.4657,69.5267,122.8779
0.0471,-0.2375,1.5693,214.2748,67.1069,128.2214
0.0505,-0.2478,1.573,221.2824,63.9542,133.626
0.0564,-0.2625,1.5608,228.1985,60.5344,138.7252
0.0679,-0.2737,1.5479,235.0,56.6183,143.313
0.0769,-0.2837,1.541,242.3435,52.1527,148.0611
0.1038,-0.3113,1.5339,249.6641,47.6183,152.4504
0.1228,-0.3225,1.5044,250.1298,42.5267,156.3435
0.1584,-0.3406,1.468,250.1298,37.3053,160.1603
0.1892,-0.3572,1.4312,250.1298,32.313,163.4198
0.2273,-0.3701,1.3923,250.1298,27.7099,166.6488
0.2625,-0.3906,1.3462,250.1298,22.9008,169.4122
0.3032,-0.4202,1.3018,250.1298,18.2061,172.1603
0.3271,-0.4319,1.2646,250.1298,13.6641,174.1069
0.3633,-0.4619,1.1953,250.1298,9.229,176.4122
0.4092,-0.481,1.1152,250.1298,5.1985,178.7023
0.4622,-0.4924,1.0471,250.1298,1.4885,180.3359
0.5078,-0.5095,0.9695,250.1298,-1.1985,181.7252
0.5647,-0.5193,0.8948,250.1298,-3.5267,183.5038
0.6257,-0.5164,0.8069,250.1298,-4.0611,184.7252
0.668,-0.5283,0.7239,250.1298,-3.4198,185.9542
0.6985,-0.5349,0.6802,250.1298,-1.916,187.0
0.7581,-0.5447,0.5916,250.1298,0.7023,187.8321
0.8242,-0.5474,0.4675,250.1298,5.2137,188.3206
0.877,-0.5488,0.3884,250.1298,10.084,189.0153
0.8955,-0.552,0.344,250.1298,15.458,189.3206
0.9412,-0.5562,0.2627,250.1298,21.7634,189.6718
0.9739,-0.5591,0.1895,250.1298,28.8931,190.2595
1.0139,-0.5635,0.1218,250.1298,36.5115,191.0687
1.0488,-0.5625,0.0562,250.1298,44.6641,191.4962
1.0828,-0.5615,0.0093,250.1298,53.5725,192.5649
1.1084,-0.5574,-0.0564,250.1298,62.4275,193.2748
1.1306,-0.5583,-0.1021,250.1298,70.916,194.1374
1.1436,-0.5608,-0.1213,250.1298,79.0992,194.9008
1.1616,-0.552,-0.1458,250.1298,87.3817,195.3435
1.1819,-0.5469,-0.1833,250.1298,94.4122,196.0076
1.2051,-0.5513,-0.1948,250.1298,100.7786,195.9695
1.2229,-0.5378,-0.2153,250.1298,106.374,196.0992
1.2463,-0.5381,-0.2271,250.1298,111.0076,195.6336
1.2605,-0.5398,-0.2278,250.1298,115.0153,194.9695
1.282,-0.5542,-0.2334,250.1298,118.1298,193.9084
1.2871,-0.5627,-0.2424,250.1298,119.9695,192.542
1.3013,-0.5652,-0.2334,250.1298,121.0305,190.2061
1.3164,-0.5669,-0.2068,250.1298,120.8015,187.9237
1.325,-0.5698,-0.198,250.1298,119.4809,185.2824
1.3345,-0.5522,-0.1707,250.1298,116.6336,182.0992
1.3423,-0.5469,-0.1448,250.1298,112.626,178.6183
1.3501,-0.5435,-0.1309,250.1298,107.6794,175.0229
1.3579,-0.5535,-0.1375,250.1298,102.2595,170.8931
1.3435,-0.5706,-0.1628,250.1298,95.6641,166.5343
1.343,-0.5798,-0.1638,250.1298,88.1221,162.3664
1.3396,-0.6006,-0.2004,250.1298,80.8092,157.6031
1.3403,-0.6052,-0.2458,250.1298,74.1603,154.0382
1.3213,-0.5984,-0.2935,250.1298,67.3893,150.5954
1.3054,-0.5881,-0.3401,250.1298,60.5802,147.2672
1.2915,-0.5693,-0.3953,250.1298,54.4122,144.1679
1.2898,-0.5449,-0.4531,250.1298,48.9008,141.8244
1.2883,-0.5212,-0.5154,250.1298,44.6794,140.3359
1.281,-0.5103,-0.5559,250.1298,41.9618,139.2137
1.282,-0.4807,-0.6204,250.1298,40.0687,138.1069
1.2883,-0.4421,-0.6812,250.1298,39.6641,138.1298
1.292,-0.4116,-0.7507,250.1298,40.5496,138.3512
1.2944,-0.429,-0.8079,250.1298,42.2901,139.4122
1.3008,-0.4419,-0.9006,250.1298,45.4885,140.9695
1.3103,-0.4429,-0.9805,250.1298,49.6412,142.8779
1.3279,-0.4399,-1.0378,250.1298,53.8855,145.1985
1.3379,-0.4167,-1.1008,250.1298,58.771,148.1298
1.3503,-0.4033,-1.145,250.1298,64.3664,150.7634
1.3765,-0.3796,-1.2163,250.1298,70.5878,153.2901
1.3945,-0.3572,-1.2717,250.1298,76.9847,155.7557
1.4263,-0.3345,-1.3438,250.1298,83.8015,158.1832
1.457,-0.3145,-1.4031,250.1298,90.8092,160.4809
1.4827,-0.2959,-1.4648,250.1298,98.0,162.6565
1.511,-0.2788,-1.5288,250.1298,104.6412,164.1069
1.5364,-0.2722,-1.6038,250.1298,110.8397,165.2748
1.5547,-0.2629,-1.6294,250.1298,116.5191,166.1756
1.5779,-0.2559,-1.6711,250.1298,122.5802,166.7328
1.6057,-0.2561,-1.7139,250.1298,127.0382,166.687
1.6316,-0.2356,-1.7439,250.1298,131.0992,166.6183
1.6582,-0.2161,-1.7734,250.1298,133.3664,166.1374
1.6858,-0.2031,-1.7822,250.1298,133.7786,164.7786
1.7185,-0.1946,-1.8035,250.1298,133.0305,163.0229
1.7512,-0.1929,-1.8291,250.1298,131.3053,161.2824
1.7725,-0.1882,-1.8459,250.1298,128.4504,158.542
1.804,-0.167,-1.853,250.1298,125.229,155.3893
1.8313,-0.1516,-1.8525,250.1298,121.2061,151.3664
1.8582,-0.1392,-1.8569,249.5496,116.2061,146.8244
1.8696,-0.1304,-1.8564,239.4427,111.4962,142.0
1.8889,-0.1438,-1.8667,229.5725,106.2824,136.3435
1.9089,-0.1658,-1.8645,219.6565,100.4275,130.4962
1.9175,-0.1711,-1.8645,210.2366,94.9542,124.4122
1.9343,-0.1838,-1.8647,200.1069,88.3588,117.8779
1.9377,-0.1951,-1.8655,190.916,82.313,111.6336
1.9333,-0.1958,-1.854,182.0916,76.458,105.4275
1.9387,-0.1921,-1.8579,173.9008,70.9618,99.4657
1.9343,-0.1919,-1.8611,166.4198,66.4427,94.3893
1.9331,-0.197,-1.8552,158.4962,61.6794,88.9313
1.9299,-0.208,-1.8484,151.1679,57.7176,83.5343
1.9214,-0.2148,-1.8381,144.6107,53.7481,79.2672
1.9124,-0.228,-1.825,138.6794,50.2214,75.3282
1.8999,-0.2361,-1.8105,133.5267,46.1985,71.2519
1.8892,-0.2346,-1.7903,128.2061,42.9695,67.7099
1.8914,-0.2166,-1.7996,123.5802,41.3206,64.3435
1.9019,-0.1987,-1.8257,119.3664,40.9313,61.6718
1.8438,-0.207,-1.8076,115.8321,40.5267,59.3893
1.8567,-0.2078,-1.8269,110.5038,42.5191,58.6412
1.8738,-0.1953,-1.8877,106.4657,48.7405,59.2137
1.8831,-0.1865,-1.9402,101.916,57.0611,60.4046
1.8804,-0.1882,-1.9417,96.8855,63.4427,61.6947
1.8916,-0.176,-1.9463,92.1221,67.3282,62.3053
1.907,-0.1416,-1.9563,86.9008,71.5191,61.8626
1.9363,-0.1147,-1.9941,81.9466,75.6336,61.3511
1.9575,-0.1152,-2.0,76.4275,80.7023,59.771
1.9675,-0.1206,-2.0,70.8321,86.5191,57.7786
1.9949,-0.1204,-2.0,64.7939,92.8779,55.4046
1.9999,-0.1111,-2.0,58.4198,98.7099,52.4351
1.9999,-0.0991,-2.0,52.2595,103.7939,49.0992
1.9999,-0.0867,-1.9873,45.9237,106.8779,45.2443
1.9999,-0.0667,-1.9575,39.2137,108.084,40.6718
1.9999,-0.0701,-1.9373,32.6947,108.3282,35.8931
1.9998,-0.0801,-1.9138,26.1832,107.1832,30.8931
1.9932,-0.0781,-1.9199,19.1221,105.9313,26.0534
1.9658,-0.0737,-1.9116,12.0916,104.3053,20.6565
1.9458,-0.0649,-1.8972,4.7252,101.4733,15.8931
1.9126,-0.0613,-1.8799,-3.4122,98.3588,11.6718
1.8662,-0.0491,-1.8596,-10.3511,95.1908,7.4198
1.8264,-0.0427,-1.8562,-18.0611,92.1756,3.7634
1.78,-0.0383,-1.8406,-25.7939,88.4657,0.5878
1.7339,-0.0217,-1.8181,-33.6794,84.084,-2.1603
1.7185,-0.0273,-1.8179,-40.6565,79.9084,-4.3664
1.6699,-0.0381,-1.8071,-49.3893,75.0534,-6.5267
1.624,-0.0464,-1.7959,-57.7405,70.0763,-8.0382
1.561,-0.032,-1.7651,-67.8702,64.3282,-9.2824
1.5515,-0.0264,-1.76,-75.916,59.1298,-10.1145
1.519,-0.0173,-1.7458,-83.8397,54.3435,-10.2595
1.4836,-0.0193,-1.7173,-93.5649,48.5115,-10.3893
1.4729,-0.0269,-1.7051,-101.4198,44.1679,-10.2366
1.4512,-0.0366,-1.6921,-109.8397,39.4809,-9.7176
1.436,-0.0364,-1.679,-117.5343,34.8702,-9.1527
1.4431,-0.022,-1.6729,-125.0687,30.5344,-8.7023
1.4243,-0.0278,-1.6555,-132.8779,26.4046,-8.2824
1.4282,-0.0222,-1.6375,-140.5649,21.771,-8.1756
1.4165,-0.0339,-1.6396,-148.8168,17.0076,-8.7405
1.4314,-0.0193,-1.6323,-157.7939,11.7939,-9.4198
1.4248,-0.0259,-1.6399,-166.0916,6.8015,-10.1374
1.4136,-0.0457,-1.6196,-176.1756,-0.6183,-12.313
1.3958,-0.0508,-1.5752,-186.4275,-9.7634,-14.7405
1.3853,-0.0579,-1.531,-196.7481,-19.7863,-17.6718
1.3733,-0.0466,-1.498,-207.0916,-29.9237,-20.5725
1.3562,-0.0413,-1.4702,-217.9084,-39.5573,-22.9313
1.343,-0.0508,-1.4321,-228.687,-48.7786,-25.2672
1.3235,-0.0659,-1.4028,-238.7863,-57.9084,-27.3893
1.3147,-0.0615,-1.3616,-248.6641,-66.6031,-28.6412
1.3101,-0.0747,-1.3381,-250.1374,-74.7481,-29.7405
1.2954,-0.0874,-1.3203,-250.1374,-81.5878,-30.6183
1.281,-0.0942,-1.2725,-250.1374,-87.3664,-30.7328
1.2808,-0.1145,-1.2336,-250.1374,-93.2595,-30.4656
1.2693,-0.1213,-1.2141,-250.1374,-95.8092,-29.6183
1.2678,-0.1372,-1.1982,-250.1374,-94.3053,-28.1603
1.2756,-0.1438,-1.1631,-250.1374,-92.7328,-26.3359
1.2805,-0.1592,-1.144,-250.1374,-87.8168,-23.8473
1.2842,-0.1641,-1.1289,-250.1374,-82.084,-21.4275
1.2954,-0.1753,-1.0789,-250.1374,-74.7634,-18.0534
1.3066,-0.196,-1.0366,-250.1374,-66.4351,-15.0382
1.3179,-0.1992,-0.9849,-250.1374,-57.084,-11.8397
1.3403,-0.2112,-0.9524,-250.1374,-46.2366,-8.7481
1.3523,-0.2292,-0.9065,-250.1374,-34.6794,-5.8473
1.3594,-0.2419,-0.864,-250.1374,-22.1985,-3.2901
1.3745,-0.2444,-0.802,-250.1374,-9.3435,-0.7863
1.3765,-0.2451,-0.7808,-250.1374,2.8855,1.1985
1.4016,-0.2578,-0.7283,-250.1374,17.1298,2.8321
1.4011,-0.2759,-0.6819,-250.1374,30.1756,3.7863
1.4038,-0.292,-0.6143,-250.1374,42.5573,4.0916
1.4033,-0.3167,-0.5691,-250.1374,53.6641,3.8779
1.397,-0.3264,-0.5129,-250.1374,63.9695,3.0916
1.3889,-0.3362,-0.4468,-250.1374,73.2977,1.6718
1.3787,-0.3452,-0.3833,-250.1374,80.8015,-0.4046
1.3582,-0.3494,-0.3203,-250.1374,86.687,-3.0
1.3391,-0.3521,-0.2983,-250.1374,90.855,-5.7176
1.3159,-0.3613,-0.2322,-250.1374,92.9389,-8.7863
1.2825,-0.3743,-0.1765,-250.1374,93.4733,-12.5344
1.2478,-0.373,-0.1206,-250.1374,92.1145,-15.9008
1.2136,-0.3684,-0.0637,-250.1374,88.6718,-19.2214
1.1597,-0.3647,-0.0149,-250.1374,83.6412,-23.2672
1.1228,-0.3704,0.0437,-250.1374,76.8626,-27.1221
1.0674,-0.3528,0.0891,-250.1374,68.6718,-30.9237
1.0225,-0.3455,0.1421,-250.1374,57.1145,-35.3359
0.9705,-0.3416,0.2043,-250.1374,45.9389,-38.8779
0.9307,-0.3328,0.2371,-250.1374,34.313,-41.7099
0.8782,-0.3301,0.2729,-250.1374,22.3206,-44.5573
0.8352,-0.3289,0.3149,-250.1374,10.1221,-46.7176
0.8142,-0.3293,0.3293,-250.1374,-3.1221,-48.313
0.7783,-0.3289,0.3665,-250.1374,-16.6183,-49.7557
0.7368,-0.3247,0.4092,-250.1374,-30.7481,-50.5878
0.7012,-0.3311,0.4387,-250.1374,-44.4656,-50.8931
0.6697,-0.3391,0.4771,-250.1374,-58.6641,-50.7176
0.6436,-0.3503,0.5159,-250.1374,-73.084,-50.3588
0.6172,-0.3552,0.543,-250.1374,-88.3206,-49.229
0.5994,-0.356,0.5784,-250.1374,-102.8779,-48.3969
0.5933,-0.3589,0.5964,-250.1374,-116.5802,-46.8092
0.5828,-0.3625,0.6204,-250.1374,-129.9542,-44.916
0.5894,-0.3652,0.6472,-250.1374,-141.5114,-42.2748
0.6038,-0.3711,0.6672,-250.1374,-152.1221,-38.4656
0.626,-0.3716,0.6782,-250.1374,-158.6031,-34.1603
0.6689,-0.3484,0.6782,-250.1374,-160.3588,-28.6641
0.7114,-0.3406,0.6851,-250.1374,-158.5343,-22.6031
0.7612,-0.3623,0.6941,-250.1374,-153.3817,-16.3969
0.8098,-0.3582,0.7156,-250.1374,-144.542,-9.1985
0.8269,-0.3542,0.7224,-250.1374,-132.8397,-2.0611
0.8865,-0.3518,0.7668,-250.1374,-119.5496,4.6412
0.9255,-0.3464,0.8025,-250.1374,-104.4046,11.2137
0.9766,-0.3435,0.8491,-250.1374,-87.3969,17.5496
1.0134,-0.3545,0.8953,-250.1374,-70.7557,23.4351
1.0449,-0.3735,0.9475,-250.1374,-53.6718,28.3588
1.0718,-0.3938,0.998,-250.1374,-37.9771,32.4885
1.0967,-0.4016,1.0674,-242.5878,-22.8321,36.0534
1.1077,-0.4036,1.0947,-232.0763,-9.0916,39.2061
1.1226,-0.4102,1.1614,-221.3206,3.5954,41.7863
1.1338,-0.4092,1.2344,-210.6565,13.5954,43.0992
1.1355,-0.4224,1.3091,-199.7405,21.9237,44.1374
1.1387,-0.417,1.3816,-188.9618,28.145,44.229
1.1389,-0.4082,1.4497,-178.2672,31.8931,43.626
1.1431,-0.4128,1.5115,-167.8855,33.2748,41.9542
1.1365,-0.4014,1.5591,-157.542,32.4275,39.9389
1.1367,-0.4016,1.5706,-147.3969,29.9695,37.4733
1.1287,-0.3958,1.6135,-137.374,26.4198,34.1832
1.1208,-0.3894,1.624,-127.4657,21.0611,31.0305
1.1047,-0.376,1.6445,-117.6489,14.7328,27.6947
1.0979,-0.3787,1.636,-108.3817,7.0534,24.145
1.0771,-0.3682,1.6301,-98.8092,-2.0687,20.3893
1.0688,-0.3545,1.613,-90.229,-11.229,17.0992
1.0444,-0.332,1.5869,-81.8702,-20.9618,14.145
1.0298,-0.3059,1.5515,-74.5573,-30.9618,11.2672
1.0269,-0.2952,1.5281,-67.5343,-40.5649,8.9542
1.0149,-0.2744,1.4861,-61.0992,-49.8931,6.7634
1.0012,-0.2529,1.4377,-55.5649,-58.5802,4.687
0.9883,-0.2244,1.3896,-50.4962,-67.4657,2.8702
0.9727,-0.2009,1.3281,-45.8168,-77.0153,0.6336
0.9614,-0.1885,1.3008,-41.145,-86.4962,-1.5878
0.9622,-0.1663,1.2283,-36.4275,-96.145,-3.0763
0.9631,-0.1523,1.1458,-31.7023,-99.9389,-3.9924
0.9612,-0.1316,1.0793,-27.3435,-104.6336,-4.6183
0.9622,-0.1152,1.0125,-24.1603,-106.9389,-4.5191
0.9568,-0.0925,0.9458,-21.3969,-108.7176,-4.458
0.9561,-0.0637,0.8804,-18.9389,-109.3588,-3.7863
0.9512,-0.0486,0.8074,-16.5573,-109.6336,-2.8779
0.9519,-0.0356,0.7488,-14.1145,-109.7328,-1.3893
0.9619,-0.0405,0.679,-11.542,-108.6107,0.3359
0.9551,-0.0491,0.6479,-9.3511,-107.1298,2.6641
0.9766,-0.0459,0.6057,-6.9618,-105.229,5.2748
0.9912,-0.0305,0.5342,-4.6412,-101.3664,8.2214
1.0181,-0.0154,0.4814,-2.2748,-94.4809,11.4809
1.0388,0.0071,0.4343,-0.0611,-88.4198,15.1679
1.0701,0.0059,0.3711,1.9313,-81.3282,18.5344
1.0901,0.0122,0.3284,3.8855,-72.0916,21.7405
1.1094,0.0161,0.2896,5.8473,-62.4885,24.9771
1.1206,0.0149,0.283,7.1603,-54.0153,27.3893
1.1465,0.0225,0.2517,8.3664,-44.7481,29.8397
1.1646,0.0244,0.2336,9.2366,-35.542,32.0305
1.1794,0.0361,0.2034,10.1298,-27.1145,33.9771
1.1956,0.0513,0.198,10.6412,-18.9466,35.3893
1.2117,0.0547,0.1824,10.8321,-11.3969,37.2748
1.2129,0.0598,0.1865,10.8397,-4.7099,38.3817
1.2241,0.0566,0.1826,10.7328,0.4809,38.8931
1.2275,0.0583,0.1782,10.6718,4.1145,39.1145
1.2341,0.0525,0.1956,10.5954,7.1221,38.7786
1.2463,0.054,0.1907,10.8168,9.1145,38.313
1.2561,0.0491,0.1895,10.6107,11.458,37.5649
1.2649,0.0496,0.1875,10.2061,12.916,36.2137
1.2654,0.0442,0.2004,9.855,13.4733,34.5954
1.283,0.0425,0.1873,9.0076,13.6031,32.3206
1.2944,0.0483,0.1921,8.1221,13.374,30.145
1.2922,0.0532,0.1809,7.3206,13.0763,28.1527
1.293,0.0479,0.1753,6.5954,12.145,25.2595
1.2876,0.0474,0.1768,5.8397,11.0076,22.4275
1.2864,0.042,0.1829,4.8855,9.0687,19.8779
1.2825,0.0378,0.1812,4.1374,7.1221,16.8168
1.2766,0.0327,0.1838,3.2366,4.9237,14.0076
1.2737,0.0361,0.1882,2.8473,2.9237,11.2519
1.2593,0.0396,0.1831,1.9542,0.9389,8.626
1.2532,0.0398,0.1833,1.3588,-0.8244,6.2214
1.2385,0.0388,0.196,0.6947,-2.8931,3.6183
1.2168,0.0464,0.1995,0.5649,-4.4122,1.6107
1.207,0.0449,0.1975,0.0992,-6.1221,-0.3588
1.1814,0.042,0.1997,0.0763,-7.9084,-2.0
1.1604,0.0417,0.2175,0.1374,-9.7863,-3.3664
1.146,0.0449,0.2058,0.5802,-11.4809,-4.3664
1.1257,0.0383,0.2078,1.145,-13.4885,-5.0458
1.1038,0.0337,0.2183,1.4809,-15.4504,-5.5191
1.0969,0.0322,0.2109,2.6107,-16.9313,-5.6565
1.0852,0.0315,0.1951,3.8015,-18.7634,-5.313
1.0662,0.0212,0.1892,4.8015,-20.2595,-4.8168
1.0588,0.0256,0.1729,5.9695,-21.0534,-4.4809
1.0488,0.0266,0.166,7.1679,-21.7939,-3.9389
1.0344,0.0312,0.1506,8.6489,-22.5344,-2.9389
1.0298,0.0364,0.1448,9.7481,-22.9313,-2.4046
1.0212,0.0457,0.1323,10.8244,-23.4886,-1.3817
1.0117,0.0564,0.1318,11.7023,-23.9389,-0.5344
1.0188,0.0659,0.1179,12.6107,-23.8321,0.5954
1.0127,0.074,0.1021,13.7252,-23.3053,1.9237
1.0281,0.0854,0.0745,14.8855,-22.374,3.9466
1.032,0.093,0.054,15.9237,-19.6031,5.4351
1.0405,0.0933,0.0469,17.1145,-16.5114,7.4656
1.0505,0.103,0.019,18.4198,-12.687,9.8626
1.0662,0.1038,-0.0044,20.0229,-8.4427,11.9847
1.0784,0.1086,-0.0203,21.3053,-3.9542,14.0153
1.085,0.0991,-0.0378,22.6947,1.374,15.8855
1.1094,0.1086,-0.0564,23.9237,6.1298,17.5725
1.126,0.1106,-0.0667,25.1069,10.9771,18.6031
1.1411,0.1121,-0.0715,25.9771,15.1985,19.5802
1.1519,0.1145,-0.0908,26.4886,18.9542,20.3817
1.1631,0.1223,-0.0906,26.9695,22.5878,20.5649
1.1741,0.123,-0.1079,27.1527,25.5038,20.3969
1.1904,0.1265,-0.1079,26.8015,28.4962,19.9466
1.1973,0.1245,-0.1113,26.5725,31.2824,19.374
1.2136,0.1274,-0.1135,26.2901,33.458,18.2748
1.2158,0.1213,-0.1211,25.6336,34.8626,17.0076
1.2161,0.1243,-0.1306,24.7405,36.2137,15.6489
1.2151,0.1172,-0.1201,23.7023,37.1221,13.8931
1.2134,0.1172,-0.1313,22.3817,38.1679,12.2824
1.2214,0.1216,-0.1248,21.1985,38.8168,10.7328
1.2048,0.1226,-0.124,19.687,38.8015,8.687
1.1995,0.1218,-0.1091,18.0534,38.1221,7.0153
1.1841,0.1165,-0.1101,16.8702,36.9466,5.2977
1.1692,0.1174,-0.1008,15.4885,35.1527,3.4885
1.1509,0.1099,-0.0884,13.9771,32.5725,1.6718
1.1335,0.106,-0.0791,11.7634,28.8931,-0.2977
1.1289,0.113,-0.0762,9.8779,24.8931,-1.9618
1.1118,0.1226,-0.0835,7.687,20.2672,-3.9008
1.0957,0.1199,-0.0723,5.4122,15.2824,-4.7481
1.0735,0.1167,-0.0601,3.2901,9.8931,-6.0382
1.0562,0.1125,-0.0615,1.1985,4.458,-7.229
1.0449,0.1018,-0.0598,-1.0687,-1.2137,-8.0
1.0359,0.1016,-0.0527,-2.916,-5.6794,-8.5649
1.0295,0.1021,-0.0667,-4.8168,-9.3588,-8.626
1.0283,0.0996,-0.0635,-6.7252,-12.0,-8.687
1.0271,0.0979,-0.0649,-8.0992,-14.3206,-8.0687
1.0188,0.092,-0.0581,-9.0763,-16.4275,-7.7863
1.0178,0.0828,-0.0322,-10.0,-18.4809,-7.2901
1.0188,0.0745,-0.0261,-10.8779,-20.4886,-6.4809
1.0198,0.0708,-0.0166,-10.7863,-22.5725,-5.8092
1.0308,0.0579,-0.0122,-10.9771,-24.0229,-5.2901
1.0398,0.0503,-0.0017,-11.0382,-25.0305,-4.6183
1.0466,0.0464,0.0037,-10.6489,-24.9618,-3.8321
1.0576,0.0359,-0.0054,-10.0534,-24.0916,-3.1603
1.0798,0.0308,0.0002,-9.2519,-22.5344,-2.2214
1.0947,0.0298,0.0056,-8.2824,-20.1985,-1.5344
1.1038,0.0183,0.0049,-6.8321,-17.5496,-1.0763
1.1238,0.0127,0.0129,-5.2137,-13.5191,-0.0153
1.137,0.0007,0.0178,-3.3588,-9.771,0.3206
1.1401,-0.0029,0.031,-1.0305,-6.1756,0.7939
1.1501,-0.0161,0.031,1.2214,-1.7252,1.1298
1.1624,-0.0161,0.0369,3.6489,2.5038,1.4275
1.1648,-0.0234,0.0461,6.4962,6.5344,1.5191
1.1628,-0.0247,0.053,9.2748,10.2214,1.8473
1.1553,-0.0266,0.0557,12.0458,13.5802,2.0076
1.1587,-0.0249,0.0645,14.687,16.2137,1.4809
1.1548,-0.0205,0.063,17.1221,17.7176,1.5573
1.1504,-0.0183,0.0623,19.5573,19.0305,1.5191
1.1338,-0.022,0.0483,21.771,19.7634,1.1221
1.1245,-0.0112,0.043,23.5878,20.1832,0.6107
1.1152,-0.0022,0.0293,25.5573,20.3282,0.6107
1.106,0.0107,0.0083,27.1069,20.5725,0.2214
1.0918,0.0156,-0.0098,28.1679,20.4351,-0.0229
1.073,0.0266,-0.0298,29.2214,20.0458,-0.2214
1.0688,0.0339,-0.0408,29.7557,19.6107,-0.1145
1.0605,0.0493,-0.0505,29.7939,18.9847,0.3893
1.0569,0.064,-0.0842,29.7863,18.5496,0.7405
1.0532,0.0835,-0.0977,29.2443,17.5267,1.0611
1.04,0.0918,-0.1104,28.7023,16.1221,1.5344
1.0278,0.0974,-0.1348,27.6565,15.3817,2.2519
1.0337,0.1062,-0.1443,26.5496,13.9389,2.4275
1.0315,0.1191,-0.1653,25.1908,12.6107,2.8168
1.0291,0.1133,-0.1604,23.5725,11.3282,2.9237
1.0308,0.1233,-0.1687,21.4809,9.6031,3.0611
1.0381,0.1218,-0.1619,19.7634,7.8015,2.9618
1.0403,0.127,-0.1672,17.7557,5.8092,2.4885
1.0432,0.1389,-0.1843,15.9542,3.7634,2.4275
1.0444,0.1445,-0.1868,13.8244,1.1756,1.8855
1.05,0.1475,-0.175,11.626,-0.9771,1.2137
1.0608,0.1506,-0.1882,9.3969,-2.5191,0.9084
1.0605,0.1523,-0.1882,7.1221,-3.5649,0.1756
1.0603,0.1477,-0.1953,4.458,-4.5267,-0.3817
1.0664,0.1431,-0.1992,2.0534,-5.0992,-1.084
1.0635,0.1416,-0.1978,-0.2443,-5.8092,-1.5725
1.0671,0.1389,-0.1882,-2.5191,-6.9466,-2.0916
1.0605,0.137,-0.1707,-4.3053,-8.2595,-2.5725
1.0581,0.1238,-0.1604,-5.6947,-9.3511,-3.1985
1.0522,0.1184,-0.1453,-7.2137,-10.7405,-3.8015
1.0498,0.1062,-0.1465,-8.2748,-11.9084,-4.0763
1.0479,0.0996,-0.1313,-8.5802,-13.1145,-4.2977
1.053,0.0942,-0.1228,-9.2977,-13.7863,-4.0153
1.043,0.0845,-0.1089,-9.3359,-14.2901,-4.0763
1.0481,0.0764,-0.1067,-9.1985,-14.374,-3.9084
1.0491,0.071,-0.0972,-9.3282,-14.5115,-3.6947
1.0498,0.0635,-0.0825,-8.9847,-14.3969,-3.3893
1.0483,0.0605,-0.0669,-8.3664,-13.7939,-3.1298
1.0486,0.0549,-0.0652,-7.7023,-13.2061,-2.6183
1.0544,0.0571,-0.0647,-6.9313,-12.1679,-2.1985
1.0591,0.0415,-0.0527,-5.855,-10.8779,-1.8397
1.0479,0.0403,-0.0469,-4.687,-9.4656,-0.855
1.0608,0.0376,-0.0364,-3.3969,-7.8855,-0.0916
1.0588,0.0403,-0.0317,-1.5725,-5.626,0.8702
