ax,ay,az,gx,gy,gz
1.3945,0.1218,0.3433,10.6718,-21.1985,-0.8397
1.4114,0.0969,0.3621,11.3053,-20.2137,-1.3206
1.4182,0.0867,0.3757,12.3282,-19.2519,-1.6412
1.4443,0.0937,0.4082,13.6107,-19.0305,-2.1298
1.4617,0.104,0.4153,15.0229,-17.9771,-2.8855
1.48,0.1025,0.4404,16.9008,-16.8168,-3.6489
1.5032,0.0864,0.4629,18.9924,-15.855,-4.8092
1.5234,0.0769,0.481,21.145,-14.5649,-6.1145
1.5376,0.0645,0.4937,23.4962,-13.6031,-7.3588
1.5498,0.0608,0.5149,25.9084,-12.6336,-8.8473
1.5649,0.0615,0.5264,28.626,-12.1374,-11.0458
1.5737,0.0542,0.5334,31.2214,-11.5954,-12.8473
1.5737,0.0491,0.5496,33.9924,-11.1908,-14.4275
1.5884,0.0474,0.5742,36.6107,-11.5954,-16.8092
1.6028,0.0522,0.5754,39.4351,-11.7786,-18.542
1.6123,0.0496,0.5894,42.5878,-12.0305,-20.8626
1.6147,0.0413,0.5945,45.6336,-12.5649,-22.7176
1.6248,0.0398,0.5911,48.4733,-12.6183,-24.6412
1.6353,0.0225,0.585,51.5649,-12.7939,-26.6489
1.6438,0.0264,0.5752,54.7405,-12.9924,-28.3588
1.6492,0.0161,0.5706,57.8321,-12.7557,-30.3053
1.6592,0.0203,0.583,60.4351,-13.2672,-31.9618
1.6748,0.019,0.5837,62.9542,-14.0534,-33.7786
1.6951,0.0134,0.5774,65.0687,-15.5573,-36.0153
1.7061,0.0098,0.5925,67.1069,-17.0305,-38.084
1.7241,0.0015,0.594,68.9695,-18.7634,-40.6947
1.7422,-0.0081,0.5864,70.7405,-20.2748,-43.2977
1.7505,-0.0176,0.5757,72.4351,-21.7557,-45.5038
1.7698,-0.0256,0.5823,74.2977,-23.3359,-48.5115
1.7974,-0.0359,0.5903,76.1527,-25.3817,-52.458
1.8196,-0.0474,0.6074,77.5038,-27.313,-55.8779
1.8313,-0.0591,0.6045,79.2519,-29.6641,-59.5649
1.8372,-0.0674,0.6101,81.2366,-32.1221,-63.8321
1.8569,-0.075,0.6394,82.8855,-34.8015,-68.2977
1.8755,-0.0913,0.6428,84.3893,-37.3282,-72.5191
1.8904,-0.1086,0.6365,86.4657,-39.5954,-77.4198
1.9065,-0.1328,0.6448,88.8244,-41.855,-81.9695
1.9167,-0.1462,0.6533,90.8244,-43.6336,-86.5267
1.9209,-0.1531,0.6743,93.2901,-45.7252,-93.084
1.9258,-0.1453,0.6843,95.4122,-47.9008,-97.7099
1.937,-0.1531,0.6958,98.4885,-50.4275,-101.6565
1.9441,-0.1628,0.697,101.4657,-52.5038,-107.3282
1.9534,-0.1929,0.6948,104.3359,-54.2137,-112.5191
1.9531,-0.2109,0.6917,107.2748,-55.1832,-117.8321
1.949,-0.2253,0.6819,110.771,-55.6565,-122.7405
1.9412,-0.2336,0.6873,114.313,-56.5878,-128.1985
1.9368,-0.2324,0.6917,116.8779,-56.9389,-133.0992
1.9207,-0.2395,0.6748,121.3282,-56.8473,-138.1298
1.9148,-0.2336,0.6545,123.5649,-55.855,-143.2748
1.8916,-0.2405,0.6572,129.084,-54.6641,-148.1679
1.8801,-0.2375,0.6584,133.1527,-53.374,-152.5878
1.8533,-0.23,0.6516,137.4657,-52.0916,-157.4504
1.8289,-0.2341,0.6462,141.7023,-50.6794,-161.3435
1.7964,-0.2529,0.6228,146.1756,-49.1145,-164.8473
1.7769,-0.2632,0.5962,151.0992,-47.7557,-168.0153
1.7637,-0.2661,0.5764,155.3512,-45.7863,-170.458
1.7581,-0.2737,0.5625,160.3359,-43.9389,-172.4962
1.7305,-0.2671,0.5476,165.4962,-42.084,-174.6031
1.7136,-0.2671,0.5222,170.2214,-39.9847,-176.5725
1.7043,-0.2585,0.511,174.9466,-38.0076,-178.0076
1.6831,-0.2505,0.4663,179.8397,-35.855,-179.9237
1.6758,-0.252,0.4431,184.0305,-33.6412,-181.7557
1.6616,-0.2532,0.4241,188.0153,-31.458,-183.3893
1.6541,-0.2578,0.3833,191.7099,-29.2519,-185.1832
1.6438,-0.2539,0.342,195.3588,-26.9847,-187.3359
1.6438,-0.2468,0.3267,198.7176,-24.5954,-189.1374
1.6406,-0.2527,0.2849,201.9847,-22.6718,-191.3359
1.6445,-0.2473,0.26,204.9466,-21.5114,-193.4275
1.6548,-0.2405,0.2239,207.2214,-20.6565,-195.4504
1.6538,-0.2166,0.1931,209.374,-20.2824,-197.6183
1.6531,-0.2109,0.1716,210.9084,-19.8626,-200.6641
1.6616,-0.2239,0.1272,211.7252,-19.3359,-204.0458
1.6663,-0.2327,0.1018,212.6107,-19.3511,-207.7634
1.6633,-0.2354,0.0881,212.5343,-19.5496,-211.6488
1.6699,-0.2368,0.0779,212.1145,-20.5878,-216.6183
1.666,-0.2341,0.0654,211.2977,-22.1069,-221.7557
1.6667,-0.2329,0.0383,210.3053,-22.9008,-226.9084
1.655,-0.2266,0.0303,209.3664,-24.0687,-232.0687
1.6428,-0.2305,0.0286,207.9389,-25.3664,-237.8092
1.6277,-0.2305,0.0254,206.5649,-27.2366,-243.3359
1.6072,-0.23,0.0151,205.3359,-29.4427,-249.1603
1.5869,-0.2363,-0.0166,204.2519,-30.6565,-250.1374
1.5779,-0.2463,-0.0195,203.1221,-31.313,-250.1374
1.5269,-0.261,-0.0227,201.7939,-32.6489,-250.1374
1.488,-0.2693,-0.0337,200.6947,-33.8702,-250.1374
1.4629,-0.2744,-0.0225,199.9771,-34.7405,-250.1374
1.426,-0.2651,-0.0254,198.5802,-36.3817,-250.1374
1.3877,-0.26,-0.0234,198.2901,-37.3969,-250.1374
1.3367,-0.2583,-0.0322,198.0916,-37.8321,-250.1374
1.3032,-0.2717,-0.0322,197.9847,-38.3053,-250.1374
1.249,-0.2891,-0.0308,198.0305,-39.1679,-250.1374
1.2112,-0.2939,-0.0342,198.1298,-39.3435,-250.1374
1.1641,-0.2898,-0.0396,198.3359,-39.9695,-250.1374
1.1091,-0.2822,-0.0505,198.9695,-40.3053,-250.1374
1.0935,-0.281,-0.0662,199.8702,-39.5573,-250.1374
1.0493,-0.2896,-0.0581,200.7023,-39.0382,-250.1374
1.0083,-0.2998,-0.0776,201.4122,-38.6412,-250.1374
0.9724,-0.2959,-0.0862,202.9313,-37.2443,-250.1374
0.9321,-0.2908,-0.1042,204.2595,-35.7252,-250.1374
0.8916,-0.2866,-0.1172,205.6641,-33.626,-250.1374
0.8474,-0.2788,-0.1228,207.7176,-30.7557,-250.1374
0.8025,-0.2654,-0.1409,210.0076,-27.3588,-250.1374
0.7844,-0.2642,-0.1528,213.0153,-23.4198,-250.1374
0.741,-0.2561,-0.1902,216.7176,-18.458,-250.1374
0.687,-0.2576,-0.2278,220.7099,-11.916,-250.1374
0.6406,-0.261,-0.2712,225.0992,-4.8321,-250.1374
0.5872,-0.2612,-0.3157,229.4962,3.3282,-250.1374
0.5347,-0.2461,-0.3552,234.0611,12.1985,-250.1374
0.4778,-0.2222,-0.3955,238.5802,20.7252,-250.1374
0.4238,-0.1926,-0.4243,242.9466,29.0153,-250.1374
0.3999,-0.1807,-0.4448,247.2366,36.5802,-250.1374
0.3496,-0.1453,-0.4768,250.1298,42.8473,-250.1374
0.3037,-0.1208,-0.5007,250.1298,48.6641,-250.1374
0.269,-0.0957,-0.5444,250.1298,54.0305,-250.1374
0.2332,-0.0742,-0.5833,250.1298,58.1374,-250.1374
0.2085,-0.041,-0.6221,250.1298,61.6336,-245.8321
0.1858,-0.0115,-0.6472,250.1298,64.3817,-238.8092
0.179,0.0154,-0.697,250.1298,66.8168,-231.7481
0.1636,0.0508,-0.7278,250.1298,68.7405,-224.8855
0.1577,0.0684,-0.7476,250.1298,70.1374,-218.7557
0.1406,0.0933,-0.7698,250.1298,71.0,-213.2214
0.1272,0.115,-0.7974,250.1298,70.9542,-208.2061
0.113,0.144,-0.8293,250.1298,70.1069,-203.6336
0.1021,0.1582,-0.8438,249.5573,68.5573,-199.3664
0.0896,0.1736,-0.877,245.9847,66.3588,-195.5573
0.0715,0.1919,-0.887,242.084,63.3206,-192.1527
0.0508,0.2129,-0.896,237.5573,59.2595,-188.2443
0.0457,0.2166,-0.9019,233.3893,55.4427,-184.7939
0.0225,0.2307,-0.9277,228.6718,50.7176,-181.3282
0.0125,0.2366,-0.9319,224.0534,45.7252,-177.9237
-0.0151,0.2554,-0.9285,219.1298,40.7405,-174.1756
-0.0237,0.2671,-0.9412,214.6565,35.3969,-170.3588
-0.0454,0.2776,-0.9558,210.2061,30.3511,-166.1527
-0.0681,0.2832,-0.9585,205.8626,25.2672,-162.0534
-0.0986,0.2961,-0.9705,201.6412,20.9008,-157.5191
-0.1106,0.302,-0.9768,197.7939,17.0916,-153.5267
-0.1292,0.3066,-1.0024,193.9237,13.1756,-148.4046
-0.1736,0.3,-1.0139,189.9313,9.7863,-142.5114
-0.2021,0.3147,-1.0293,186.6183,6.8321,-137.3664
-0.217,0.3142,-1.0269,183.4351,3.5496,-131.7176
-0.241,0.3147,-1.0369,180.0305,0.3282,-124.8397
-0.2644,0.3223,-1.0381,176.9084,-2.8168,-118.3969
-0.2866,0.3298,-1.04,174.1298,-6.6794,-110.8473
-0.3015,0.3364,-1.0344,171.0153,-10.3282,-103.1527
-0.3105,0.3499,-1.0259,168.1145,-14.0458,-95.687
-0.3149,0.3579,-1.0281,165.4962,-18.3511,-87.4809
-0.3162,0.3728,-1.0344,162.8702,-22.2214,-78.9466
-0.3174,0.377,-1.0383,160.4886,-25.4046,-71.3969
-0.3093,0.3718,-1.0303,158.2061,-28.6412,-63.0153
-0.2844,0.3804,-1.0337,155.7252,-30.7481,-55.3969
-0.2727,0.3682,-1.0437,153.4962,-32.8321,-47.6107
-0.251,0.3774,-1.0461,151.3969,-34.3664,-40.9313
-0.2231,0.376,-1.0532,149.4122,-35.3588,-34.1756
-0.1978,0.3672,-1.0479,147.5496,-35.6947,-27.5649
-0.1694,0.3582,-1.0454,145.7252,-36.0458,-21.8092
-0.1428,0.3462,-1.0442,143.9466,-36.5191,-16.0611
-0.1211,0.3459,-1.0479,142.084,-36.6031,-10.2824
-0.0908,0.3528,-1.0457,140.5573,-36.8931,-5.4427
-0.0571,0.3567,-1.0386,139.0916,-36.6031,-0.5573
-0.0168,0.3579,-1.0522,137.1298,-35.916,3.9924
0.0132,0.3457,-1.0508,135.5038,-34.5496,8.3053
0.0579,0.3291,-1.0613,133.5191,-32.3053,12.2137
0.095,0.3081,-1.0586,131.771,-30.1527,15.9008
0.1316,0.3008,-1.0481,129.8626,-27.9924,18.9008
0.1499,0.2981,-1.0518,127.6794,-25.8244,21.7099
0.1965,0.2915,-1.0356,125.6412,-23.8244,24.3664
0.2285,0.2827,-1.0313,123.4275,-21.9084,25.9237
0.2681,0.2695,-1.0159,121.3435,-20.6412,27.5114
0.3081,0.249,-1.0266,118.7176,-19.6947,28.855
0.342,0.2358,-1.0239,118.8702,-18.0534,29.7252
0.3882,0.2209,-1.0232,118.2824,-16.6718,29.8473
0.4263,0.2043,-1.0325,115.3588,-15.7023,29.9389
0.4587,0.1897,-1.0305,115.2443,-14.1985,29.3664
0.4771,0.1824,-1.0398,114.0687,-12.6947,28.1374
0.51,0.1741,-1.0459,112.7252,-11.4733,26.6107
0.5437,0.1611,-1.0596,111.542,-10.2061,25.0611
0.5588,0.1504,-1.0684,110.3282,-9.1679,22.6489
0.5884,0.1436,-1.0796,108.9008,-7.8244,20.3969
0.6057,0.1265,-1.1008,107.7176,-6.9008,17.6794
0.6238,0.1365,-1.1099,106.2901,-6.4656,15.0687
0.6277,0.1355,-1.1174,104.9084,-6.6794,12.3893
0.6301,0.1387,-1.1248,103.2748,-6.6031,9.4275
0.6306,0.1404,-1.1379,101.8321,-6.4962,6.6947
0.6333,0.1423,-1.1624,100.0153,-6.9466,4.0534
0.6201,0.1409,-1.187,98.2977,-7.0,1.6947
0.6165,0.1399,-1.1902,96.374,-7.4275,-0.5573
0.594,0.1257,-1.207,94.8397,-7.9008,-2.3817
0.5874,0.1292,-1.2258,93.2519,-8.2214,-3.7634
0.5591,0.1313,-1.228,91.4657,-8.8855,-4.4046
0.5557,0.1331,-1.2446,89.9847,-9.5267,-4.6489
0.5361,0.1399,-1.2551,88.6031,-9.7328,-4.3817
0.5149,0.1558,-1.2585,87.4046,-10.0611,-3.6489
0.4949,0.1694,-1.2822,86.3435,-9.8702,-2.2443
0.479,0.1812,-1.2993,85.229,-9.3053,-0.771
0.4595,0.1995,-1.3137,84.626,-8.7634,0.9466
0.4319,0.2109,-1.345,83.7099,-7.7252,3.5496
0.4155,0.2195,-1.3689,82.5573,-6.8397,6.1221
0.4089,0.2236,-1.3909,81.1832,-6.6718,9.313
0.3989,0.2351,-1.4209,79.8626,-6.3282,12.4198
0.3901,0.2498,-1.4358,77.8168,-6.687,16.3206
0.3977,0.2651,-1.4551,75.6107,-7.0229,20.0458
0.4004,0.2737,-1.4663,72.9389,-7.6565,23.4046
0.4058,0.283,-1.4971,69.7099,-8.6641,27.458
0.4275,0.2988,-1.5195,66.2672,-9.9084,30.6794
0.4409,0.311,-1.5469,62.1908,-11.0,33.626
0.4587,0.3147,-1.5642,57.8092,-11.8092,36.4351
0.4885,0.3281,-1.5886,53.4198,-12.8397,38.7786
0.5122,0.3416,-1.6047,48.313,-13.5802,41.2443
0.5476,0.3481,-1.6331,43.2901,-14.7557,42.8855
0.5806,0.3486,-1.6548,37.6107,-16.0153,44.3664
0.6018,0.3452,-1.6648,31.7786,-16.8244,45.6718
0.6384,0.3462,-1.6692,25.6412,-17.4351,46.1908
0.677,0.3379,-1.6895,19.3817,-17.4733,46.4351
0.7043,0.3323,-1.7122,12.9389,-17.5267,46.2366
0.7305,0.332,-1.7075,6.3511,-17.5038,45.8092
0.7666,0.3181,-1.7117,-0.0382,-17.4656,45.1221
0.804,0.3196,-1.7109,-6.3359,-17.9542,44.0382
0.8208,0.3008,-1.7002,-12.6031,-18.1221,42.7557
0.8372,0.2913,-1.6982,-18.7863,-18.3053,40.9389
0.8579,0.2747,-1.6885,-25.0611,-18.374,38.8779
0.8745,0.2598,-1.6794,-31.1908,-18.3893,36.6565
0.8936,0.2432,-1.6748,-36.771,-18.9618,34.687
0.9009,0.2312,-1.6682,-42.1832,-19.3359,32.7481
0.9055,0.2148,-1.656,-47.1908,-19.7634,30.313
0.9158,0.1941,-1.6389,-52.0763,-20.6641,28.145
0.9187,0.1775,-1.6165,-56.7557,-21.9771,26.1298
0.925,0.1667,-1.5972,-61.0611,-22.8855,24.1298
0.9282,0.1604,-1.5876,-64.9695,-24.3282,22.0534
0.9277,0.1482,-1.5874,-68.8092,-25.5496,20.3282
0.9202,0.1313,-1.5881,-72.4046,-26.2443,18.9313
0.9255,0.1108,-1.5632,-75.8931,-27.1603,17.6183
0.916,0.1179,-1.5427,-79.1145,-28.3664,16.0916
0.9185,0.1033,-1.5381,-82.0153,-29.7786,15.1298
0.9104,0.0964,-1.5254,-84.4885,-31.1985,13.9389
0.9155,0.0876,-1.533,-86.8321,-32.2595,13.084
0.9136,0.0786,-1.5435,-89.1298,-32.626,12.2595
0.9084,0.0581,-1.5522,-91.5267,-32.8015,11.5496
0.9109,0.0688,-1.5381,-93.8855,-33.2443,10.9542
0.9111,0.0886,-1.5388,-95.9924,-33.5954,10.5344
0.9075,0.0857,-1.5527,-98.4351,-33.9542,10.4046
0.9087,0.0898,-1.5498,-100.7939,-34.1069,10.2366
0.918,0.0869,-1.5686,-102.916,-33.6794,9.8473
0.9141,0.0793,-1.5813,-105.229,-32.7481,10.145
0.9214,0.0854,-1.5859,-107.5343,-31.9466,10.229
0.9121,0.1079,-1.5742,-110.3893,-31.313,10.3511
0.9197,0.1318,-1.5776,-113.6031,-30.7023,10.4962
0.9302,0.1353,-1.5869,-116.2824,-30.3969,10.313
0.926,0.1292,-1.5847,-119.0229,-29.6565,10.0687
0.9246,0.127,-1.5918,-122.2214,-28.8092,9.9618
0.929,0.1355,-1.5969,-125.3893,-27.6794,9.9313
0.9321,0.1394,-1.6072,-128.6183,-26.5114,9.8092
0.9348,0.1497,-1.606,-131.7634,-25.4198,9.6641
0.9377,0.1799,-1.5906,-135.1832,-25.1756,9.6336
0.9363,0.2017,-1.5837,-138.6565,-25.5725,9.4198
0.936,0.2122,-1.5671,-142.0611,-26.4733,9.1145
0.9358,0.2139,-1.5828,-145.5267,-27.6718,8.5496
0.9407,0.2129,-1.5918,-149.313,-28.9237,8.1069
0.946,0.2148,-1.5906,-153.3053,-30.7786,7.4885
0.9458,0.2209,-1.5938,-157.4122,-33.458,6.5878
0.9553,0.2373,-1.6033,-161.7786,-36.3435,6.0687
0.9512,0.2454,-1.6072,-166.5802,-40.1603,5.0534
0.9521,0.2629,-1.6196,-171.7099,-44.3511,3.7328
0.9563,0.2891,-1.6316,-177.229,-48.8168,2.3206
0.9668,0.302,-1.6443,-183.4733,-53.3817,0.9008
0.9639,0.3079,-1.657,-189.9542,-58.1985,-0.6947
0.9641,0.3174,-1.6694,-196.3893,-62.7786,-2.1527
0.9683,0.3286,-1.6863,-203.374,-67.1069,-3.3893
0.9744,0.3271,-1.7029,-210.5649,-71.229,-4.6107
0.9734,0.3213,-1.7085,-217.7405,-75.5725,-5.4962
0.9736,0.3257,-1.7156,-225.3512,-79.6794,-6.6794
0.9771,0.3252,-1.7097,-232.6794,-83.8015,-7.7023
0.9788,0.3213,-1.7185,-240.4657,-88.0992,-8.4504
0.9766,0.3167,-1.7212,-248.0153,-92.0,-8.9618
0.9775,0.3113,-1.7161,-250.1374,-93.2672,-9.7099
0.9783,0.3066,-1.7117,-250.1374,-96.4351,-9.8244
0.9929,0.3433,-1.7012,-250.1374,-101.229,-10.1756
1.0059,0.3286,-1.6899,-250.1374,-103.7405,-10.5267
1.0132,0.2825,-1.6885,-250.1374,-105.7481,-11.1527
1.0247,0.2166,-1.7166,-250.1374,-107.1603,-11.9237
1.033,0.1682,-1.7229,-250.1374,-108.0153,-12.4885
1.0449,0.1116,-1.739,-250.1374,-108.5725,-13.0305
1.0544,0.0879,-1.7383,-250.1374,-108.2595,-13.6565
1.0654,0.0549,-1.739,-250.1374,-106.5954,-13.9771
1.0635,0.033,-1.7246,-250.1374,-104.458,-14.1603
1.0632,0.019,-1.7039,-250.1374,-101.542,-13.9695
1.0713,0.0059,-1.7087,-250.1374,-96.0992,-13.542
1.0637,0.0085,-1.6592,-250.1374,-94.626,-13.1298
1.0659,0.0105,-1.6292,-250.1374,-93.5878,-13.0763
1.0588,-0.0049,-1.6011,-250.1374,-89.9542,-12.7863
1.0571,-0.0134,-1.5886,-250.1374,-90.3511,-12.9924
1.0554,-0.0254,-1.5498,-250.1374,-88.3893,-12.3359
1.0444,-0.0112,-1.5161,-250.1374,-87.0076,-12.2901
1.04,0.0076,-1.48,-250.1374,-86.4122,-12.4962
1.0234,0.022,-1.4463,-250.1374,-86.0916,-12.4733
1.0115,0.0251,-1.4229,-250.1374,-86.1145,-12.9008
0.9954,0.01,-1.387,-250.1374,-86.1985,-13.8473
0.9778,0.0144,-1.3557,-250.1374,-86.7328,-14.3359
0.9702,0.0117,-1.3418,-250.1374,-87.771,-14.9237
0.9507,0.001,-1.3044,-250.1374,-89.7786,-15.6183
0.9329,0.0068,-1.2605,-250.1374,-93.0076,-16.1908
0.9036,0.0071,-1.1948,-250.1374,-96.229,-16.5344
0.8914,0.0095,-1.1689,-250.1374,-98.3053,-16.374
0.8823,-0.0203,-1.114,-250.1374,-103.9237,-15.687
0.8733,-0.0518,-1.0803,-250.1374,-107.6183,-15.1985
0.8738,-0.0635,-1.0654,-250.1374,-110.6183,-14.2443
0.8745,-0.0803,-1.0303,-250.1374,-113.7939,-13.4046
0.8691,-0.0869,-0.9775,-250.1374,-116.1069,-12.4962
0.8706,-0.0925,-0.9524,-250.1374,-117.7328,-12.0076
0.8757,-0.116,-0.9229,-250.1374,-119.1145,-11.8244
0.8799,-0.1294,-0.8743,-250.1374,-119.9847,-11.4427
0.8713,-0.1389,-0.821,-250.1374,-120.5496,-11.1145
0.8696,-0.1467,-0.78,-250.1374,-121.1374,-11.4046
0.8801,-0.1501,-0.7488,-250.1374,-121.8702,-11.2977
0.874,-0.157,-0.7207,-250.1374,-122.9771,-10.9847
0.8674,-0.1731,-0.6846,-250.1374,-123.542,-11.2977
0.864,-0.2087,-0.6445,-250.1374,-124.542,-11.3206
0.8601,-0.2334,-0.6287,-250.1374,-125.8473,-10.9008
0.8684,-0.2456,-0.6077,-250.1374,-126.6336,-10.7786
0.8555,-0.2563,-0.5886,-250.1374,-127.0305,-10.5573
0.8601,-0.2668,-0.5674,-250.1374,-126.8321,-10.2672
0.8594,-0.2585,-0.5396,-250.1374,-126.6565,-10.0
0.8513,-0.2568,-0.5251,-250.1374,-126.229,-9.8931
0.8499,-0.2578,-0.5078,-250.1374,-125.6794,-9.9237
0.8403,-0.2749,-0.4792,-250.1374,-124.8931,-9.8092
0.8267,-0.2947,-0.4604,-250.1374,-123.9542,-10.1756
0.8213,-0.3052,-0.4204,-250.1374,-123.3282,-9.9008
0.8047,-0.3071,-0.3777,-250.1374,-122.7786,-9.6947
0.7981,-0.2957,-0.3206,-250.1374,-122.313,-9.1908
0.7859,-0.28,-0.2742,-250.1374,-122.7939,-8.8168
0.7751,-0.2654,-0.2217,-250.1374,-123.8092,-8.7405
0.7725,-0.26,-0.2029,-250.1374,-124.7481,-8.687
0.7832,-0.2629,-0.1516,-250.1374,-125.7099,-8.7252
0.7859,-0.293,-0.1306,-250.1374,-126.374,-7.6947
0.7874,-0.3403,-0.0811,-250.1374,-125.855,-7.5878
0.7866,-0.3711,-0.0361,-250.1374,-124.7252,-7.458
0.7717,-0.4001,0.0068,-250.1374,-123.9084,-7.3817
0.7737,-0.4221,0.0979,-250.1374,-123.4733,-7.6947
0.7659,-0.4382,0.1743,-250.1374,-123.7634,-8.2595
0.7625,-0.4312,0.2173,-250.1374,-124.4962,-7.9924
0.7654,-0.4089,0.3022,-250.1374,-125.2366,-7.855
0.7764,-0.3845,0.3918,-250.1374,-125.4198,-7.4351
0.7917,-0.3679,0.4727,-250.1374,-124.5191,-6.4885
0.801,-0.3691,0.5532,-250.1374,-121.6641,-5.771
0.8103,-0.3757,0.6301,-250.1374,-118.4427,-5.4427
0.8259,-0.3977,0.6992,-250.1374,-113.8397,-4.8931
0.8308,-0.3962,0.7771,-250.1374,-108.4351,-4.6183
0.8464,-0.3914,0.8435,-250.1374,-101.374,-4.3664
0.8538,-0.3931,0.8843,-250.1374,-94.687,-4.5725
0.8616,-0.397,0.9609,-250.1374,-84.7634,-4.2672
0.854,-0.4175,1.0378,-250.1374,-74.3435,-4.4046
0.8506,-0.4316,1.1077,-250.1374,-64.1756,-4.9466
0.8323,-0.4526,1.1714,-250.1374,-54.5878,-5.0305
0.8132,-0.4658,1.2507,-250.1374,-45.6107,-5.542
0.7781,-0.4871,1.3191,-250.1374,-36.9618,-6.313
0.7498,-0.5012,1.3892,-250.1374,-27.4809,-6.6794
0.7109,-0.4946,1.4551,-250.1374,-21.5725,-6.8092
0.6619,-0.4939,1.5193,-250.1374,-16.8168,-7.0229
0.6208,-0.4731,1.5828,-250.1374,-13.5878,-7.0
0.5632,-0.4512,1.655,-250.1374,-11.7252,-6.7328
0.5469,-0.4521,1.689,-250.1374,-11.1985,-5.9924
0.5029,-0.4324,1.7378,-250.1374,-11.8168,-4.7557
0.4729,-0.4128,1.7915,-250.1374,-13.0611,-3.1374
0.4438,-0.3906,1.8254,-250.1374,-15.3511,-1.1679
0.4211,-0.3809,1.8591,-250.1374,-18.4427,1.2519
0.4075,-0.3689,1.873,-250.1374,-22.0458,3.6489
0.3958,-0.3679,1.8865,-250.1374,-26.0916,6.0382
0.3933,-0.3652,1.8904,-248.1298,-29.8092,8.5878
0.3994,-0.3616,1.8818,-238.6336,-33.7252,10.4733
0.4041,-0.3579,1.8765,-227.9924,-38.3969,12.6031
0.4131,-0.3479,1.8647,-218.5954,-42.0992,14.5038
0.4255,-0.344,1.8691,-209.4122,-46.1908,16.2366
0.4399,-0.3354,1.8694,-200.7328,-50.2519,17.3206
0.4653,-0.3228,1.8643,-192.8015,-53.7863,18.0763
0.4854,-0.311,1.856,-185.084,-56.9008,19.1069
0.5061,-0.2917,1.8765,-177.7328,-59.7557,19.5573
0.5161,-0.2769,1.8892,-170.9466,-62.084,19.3206
0.5327,-0.2532,1.8821,-163.5649,-64.3282,19.1298
0.5552,-0.2288,1.8875,-156.5802,-66.145,18.3053
0.5605,-0.2058,1.8938,-149.5802,-67.3969,17.4275
0.5771,-0.1965,1.8965,-142.2672,-68.4427,16.4198
0.5735,-0.1816,1.8958,-135.2977,-69.374,15.1298
0.5732,-0.1809,1.8989,-127.5954,-69.9542,14.145
0.5767,-0.1721,1.8894,-120.4809,-70.1527,13.3511
0.5745,-0.1628,1.865,-113.0305,-69.5496,13.0382
0.5769,-0.1609,1.8616,-105.542,-68.5496,13.0687
0.5703,-0.1582,1.8406,-97.7099,-67.0229,13.1679
0.5652,-0.1541,1.811,-90.3588,-65.0382,14.1985
0.5527,-0.1606,1.7839,-83.0992,-62.9924,15.1908
0.5457,-0.1628,1.7666,-76.1374,-60.6336,16.5114
0.5378,-0.1536,1.7476,-69.3435,-58.0611,18.0229
0.5173,-0.1506,1.7302,-62.5954,-54.7481,19.313
0.5066,-0.1323,1.7007,-56.458,-51.4275,20.8473
0.4939,-0.1333,1.6755,-50.458,-47.9389,22.3435
0.478,-0.1289,1.6658,-44.7405,-43.9008,23.7328
0.4668,-0.1216,1.6414,-39.5649,-39.6107,25.4198
0.4353,-0.1277,1.6121,-34.4046,-34.9084,27.2137
0.4053,-0.1255,1.5923,-30.0076,-30.3511,29.3893
0.3757,-0.1287,1.5793,-25.9313,-26.0916,31.8015
0.3389,-0.1484,1.5669,-22.1374,-22.4962,34.313
0.2981,-0.1641,1.5505,-18.7786,-19.2977,37.3817
0.2676,-0.1738,1.5598,-16.1908,-16.5573,40.7863
0.2502,-0.1738,1.562,-13.6412,-14.9313,44.4733
0.2161,-0.1758,1.5745,-11.3588,-14.2824,48.4122
0.1926,-0.1948,1.583,-9.542,-14.5038,52.4122
0.1733,-0.2112,1.6045,-7.8931,-15.1756,56.7863
0.1538,-0.2156,1.6133,-6.0153,-15.8244,60.7252
0.1438,-0.238,1.6365,-3.9924,-16.9771,64.5191
0.1333,-0.2424,1.6697,-1.2977,-18.0534,67.7863
0.1353,-0.2688,1.6877,2.1908,-19.7863,71.4198
0.1384,-0.2898,1.719,6.0534,-20.8702,74.6641
0.1392,-0.3164,1.7515,9.9466,-21.5725,77.4046
0.1384,-0.3247,1.7817,14.2901,-22.6183,79.855
0.1477,-0.3542,1.8164,19.5038,-23.916,82.4657
0.1519,-0.3589,1.8538,24.7939,-25.313,84.458
0.1455,-0.3723,1.8606,30.5954,-26.5573,86.7634
0.1589,-0.3933,1.8865,37.0,-27.8626,89.4504
0.1677,-0.4199,1.9065,43.9847,-29.4275,92.1145
0.1765,-0.4368,1.9087,50.7557,-30.5954,94.2595
0.1799,-0.4504,1.9402,58.0153,-32.229,96.2061
0.1902,-0.4724,1.9534,65.9084,-33.8244,97.9542
0.1953,-0.4932,1.9561,73.6565,-35.0611,99.6031
0.2004,-0.4995,1.9673,81.687,-36.5115,100.6718
0.2012,-0.5198,1.9719,89.9542,-37.8397,101.9313
0.2002,-0.5342,1.969,98.4657,-38.9924,103.0763
0.2058,-0.5415,1.968,107.1908,-39.7481,103.542
0.2007,-0.5449,1.9517,116.6183,-39.9695,104.8397
0.1912,-0.5525,1.9421,125.229,-40.3588,106.1145
0.1758,-0.5613,1.929,134.3817,-40.6031,106.771
0.1541,-0.5684,1.9087,143.2061,-40.7481,108.2519
0.1396,-0.5776,1.8914,153.0076,-40.1985,110.0687
0.1133,-0.584,1.8704,161.9466,-39.7557,111.9237
0.1064,-0.5908,1.8484,170.374,-39.542,114.0687
0.0801,-0.6052,1.8159,180.1069,-39.0992,116.8626
0.0593,-0.6284,1.771,189.3053,-39.2443,120.2824
0.0569,-0.6511,1.7207,198.458,-39.6565,124.3206
0.0361,-0.6763,1.6553,207.5573,-40.2366,128.5038
0.0381,-0.6924,1.5903,216.3282,-40.6183,132.9313
0.0449,-0.7012,1.5081,224.5191,-40.9542,137.4275
0.0562,-0.7078,1.4412,232.3588,-41.1527,142.3893
0.0688,-0.7136,1.3647,239.5191,-40.5038,146.7481
0.0723,-0.7131,1.3289,245.9618,-39.687,150.7328
0.0896,-0.7183,1.2581,250.1298,-39.0992,154.4886
0.1121,-0.7183,1.1919,250.1298,-38.626,158.0458
0.1223,-0.7144,1.1311,250.1298,-38.3588,160.9008
0.1416,-0.7009,1.0881,250.1298,-38.2061,163.2824
0.1519,-0.689,1.0408,250.1298,-38.8702,165.1832
0.1555,-0.6919,1.0022,250.1298,-39.7328,166.3969
0.1611,-0.6885,0.9568,250.1298,-41.3053,167.542
0.1636,-0.6873,0.9353,250.1298,-42.9466,168.5878
0.1626,-0.6824,0.9041,250.1298,-45.3206,169.2824
0.1672,-0.689,0.8547,250.1298,-47.542,170.3969
0.1626,-0.6865,0.8286,250.1298,-49.8855,170.9924
0.167,-0.687,0.7981,250.1298,-52.3893,172.3893
0.1714,-0.6814,0.7715,250.1298,-54.7481,173.4504
0.1606,-0.6936,0.7534,250.1298,-56.7634,174.7634
0.1587,-0.689,0.7261,250.1298,-58.9313,176.1756
0.1599,-0.6914,0.7109,250.1298,-60.2595,177.4733
0.1543,-0.6958,0.709,250.1298,-61.1985,179.1221
0.1509,-0.6992,0.7024,250.1298,-61.8931,180.8626
0.1455,-0.7021,0.6904,250.1298,-62.0611,182.5878
0.1418,-0.7058,0.6848,250.1298,-62.145,184.8702
0.1265,-0.7173,0.6982,250.1298,-61.229,187.313
0.1104,-0.7292,0.6956,250.1298,-59.7786,190.6336
0.1016,-0.7378,0.7102,250.1298,-57.7786,194.0916
0.0779,-0.7524,0.7195,250.1298,-55.7939,197.5649
0.0564,-0.761,0.7314,250.1298,-53.9542,201.4886
0.0386,-0.7983,0.7515,250.1298,-51.4656,205.9771
0.0098,-0.8372,0.7571,250.1298,-49.2595,210.9695
-0.009,-0.8569,0.7725,250.1298,-46.8321,216.7252
-0.0227,-0.8701,0.7812,250.1298,-44.3588,222.7023
-0.0396,-0.8784,0.8,250.1298,-41.8702,229.4198
-0.0544,-0.8896,0.8313,250.1298,-39.7176,236.1069
-0.0764,-0.8943,0.8677,250.1298,-37.8779,243.313
-0.0847,-0.9082,0.8862,250.1298,-36.1679,250.1298
-0.0942,-0.9331,0.9128,250.1298,-34.7176,250.1298
-0.0991,-0.9729,0.9397,250.1298,-33.7023,250.1298
-0.0935,-1.0198,0.9568,250.1298,-32.8473,250.1298
-0.0881,-1.0398,0.9741,250.1298,-32.4656,250.1298
-0.0867,-1.0959,0.991,250.1298,-32.3893,250.1298
-0.0642,-1.1868,1.0005,250.1298,-32.6641,250.1298
-0.032,-1.2737,0.9939,250.1298,-34.0763,250.1298
0.0229,-1.3733,0.9834,250.1298,-36.0,250.1298
0.0801,-1.4768,0.947,250.1298,-38.9695,250.1298
0.1672,-1.5793,0.8801,250.1298,-41.5038,250.1298
0.272,-1.6792,0.8074,250.1298,-43.5191,250.1298
0.3171,-1.7339,0.7793,250.1298,-45.6489,250.1298
0.4517,-1.8198,0.678,250.1298,-47.3969,250.1298
0.5906,-1.9036,0.5664,250.1298,-47.4351,250.1298
0.7344,-1.9761,0.4456,250.1298,-46.1603,250.1298
0.8921,-2.0,0.3162,250.1298,-43.8321,250.1298
1.0471,-2.0,0.1882,250.1298,-40.9542,250.1298
1.2136,-2.0,0.054,250.1298,-37.1985,250.1298
1.3782,-2.0,-0.0857,250.1298,-33.1679,250.1298
1.5439,-2.0,-0.2285,250.1298,-29.1603,250.1298
1.6326,-2.0,-0.301,250.1298,-24.7252,250.1298
1.8088,-2.0,-0.4543,250.1298,-19.5114,250.1298
1.9819,-2.0,-0.6038,250.1298,-13.2366,250.1298
1.9999,-2.0,-0.7781,250.1298,-6.2137,250.1298
1.9999,-2.0,-0.9451,250.1298,2.6489,250.1298
1.9999,-2.0,-1.1243,250.1298,12.3511,250.1298
1.9999,-2.0,-1.2786,250.1298,22.3435,250.1298
1.9999,-2.0,-1.4221,250.1298,31.5954,250.1298
1.9999,-2.0,-1.481,250.1298,39.2672,250.1298
1.9999,-1.9592,-1.604,250.1298,46.2137,250.1298
1.9999,-1.8755,-1.7209,250.1298,50.6336,250.1298
1.9999,-1.7839,-1.8093,250.1298,53.8397,250.1298
1.9999,-1.6719,-1.8955,250.1298,55.2366,250.1298
1.9999,-1.5437,-1.9521,250.1298,55.458,249.6565
1.9999,-1.4094,-2.0,250.1298,54.5573,231.1756
1.9999,-1.3123,-2.0,250.1298,52.5649,211.9542
1.9999,-1.2156,-2.0,250.1298,49.5573,192.0992
1.9999,-1.1729,-2.0,250.1298,45.4427,172.5954
1.9999,-1.1001,-2.0,250.1298,38.9542,153.0534
1.9999,-1.0173,-2.0,250.1298,30.0382,133.4733
1.9999,-0.8176,-2.0,250.1298,23.1527,115.5573
1.9999,-0.7493,-2.0,250.1298,17.4656,99.0611
1.9999,-0.6853,-2.0,250.1298,15.3282,79.8397
1.9999,-0.6724,-2.0,250.1298,15.6336,64.374
1.9999,-0.6348,-2.0,250.1298,13.687,51.1145
1.9999,-0.5764,-2.0,250.1298,11.9466,39.6489
1.9999,-0.4844,-2.0,250.1298,9.7176,30.1221
1.9999,-0.4106,-2.0,250.1298,5.8779,21.8168
1.9999,-0.3459,-2.0,243.3664,3.4885,15.7786
1.9999,-0.3313,-2.0,223.9084,1.7863,11.0382
1.9999,-0.3049,-2.0,205.9466,0.3282,7.9771
1.9999,-0.2949,-1.9919,190.229,-0.0534,6.229
1.9999,-0.2891,-1.8513,176.6336,-0.5267,5.855
1.9999,-0.3008,-1.7485,165.8702,-1.1756,6.6336
1.9639,-0.3374,-1.6594,157.4657,-0.5496,8.2366
1.9128,-0.3784,-1.5637,151.0305,1.0153,10.6641
1.8699,-0.4021,-1.4604,146.7099,3.2137,13.7405
1.842,-0.4153,-1.4053,144.0153,5.5496,17.229
1.8142,-0.4297,-1.3054,142.771,7.3206,20.7863
1.7844,-0.4507,-1.1931,143.2901,8.4504,24.229
1.7698,-0.4629,-1.1084,145.1145,9.5954,27.7328
1.7471,-0.4915,-1.0198,148.4809,10.3053,31.2061
1.7419,-0.5249,-0.9473,151.9695,11.0916,34.2366
1.7375,-0.5581,-0.8884,156.3282,11.5573,36.7863
1.7329,-0.5916,-0.8276,161.8779,11.9237,39.3817
1.7263,-0.6143,-0.7729,167.6947,12.0763,41.3359
1.7336,-0.6206,-0.7583,174.4046,12.542,42.8779
1.7258,-0.6404,-0.7346,181.6641,12.7634,44.0076
1.7249,-0.6753,-0.7092,189.771,12.5649,45.374
1.7117,-0.7024,-0.7131,198.9313,11.4122,46.6412
1.738,-0.709,-0.7178,208.0305,10.3511,47.9542
1.7285,-0.718,-0.7488,216.7176,8.3206,49.2901
1.7092,-0.7439,-0.7642,226.4733,4.771,50.5725
1.7295,-0.7336,-0.8188,235.9313,0.7328,51.9084
1.7368,-0.7283,-0.8396,244.3053,0.3664,54.3511
1.7605,-0.7085,-0.9385,250.1298,2.1832,56.8015
1.7708,-0.6775,-1.0125,250.1298,3.0382,58.6107
1.7864,-0.6514,-1.0798,250.1298,3.2519,59.5191
1.8086,-0.6106,-1.1406,250.1298,2.3511,59.6794
1.8357,-0.5776,-1.2229,250.1298,1.1298,59.1298
1.8586,-0.5547,-1.293,250.1298,0.3053,58.1603
1.8826,-0.5334,-1.364,250.1298,-0.7939,56.5573
1.895,-0.5325,-1.3904,250.1298,-1.4351,54.5344
1.927,-0.5256,-1.4517,250.1298,-1.3817,51.8931
1.9521,-0.512,-1.5171,247.8855,-0.9924,48.9313
1.9546,-0.4817,-1.5818,244.2519,0.687,46.3053
1.9999,-0.467,-1.7117,239.771,5.5649,43.7176
1.9999,-0.4602,-1.7693,235.3588,10.0687,40.7863
1.9999,-0.415,-1.7983,229.6107,12.7557,38.0153
1.9771,-0.4192,-1.8396,223.0992,18.7099,34.458
1.9968,-0.374,-1.7952,216.2443,17.8244,29.4733
1.9999,-0.324,-1.9021,208.0763,22.1069,26.7557
1.9999,-0.2632,-2.0,198.5878,38.1985,25.6641
1.9999,-0.2644,-2.0,188.9618,47.1069,23.0153
1.9999,-0.2581,-2.0,178.916,48.5802,18.7099
1.9999,-0.2476,-2.0,168.4962,51.6794,13.9008
1.9873,-0.2295,-2.0,155.7634,54.1603,7.7939
1.9531,-0.2183,-1.9648,145.2214,53.6794,1.8092
1.9397,-0.2058,-1.9331,135.5191,53.4351,-3.7634
1.9131,-0.2068,-1.9016,126.2214,54.3588,-9.0916
1.8738,-0.2117,-1.8708,116.6336,54.7634,-14.2366
1.8337,-0.2205,-1.832,109.1298,54.542,-19.2443
1.8064,-0.2378,-1.8101,100.7176,54.3359,-23.374
1.7927,-0.2432,-1.8247,93.7328,53.3435,-27.4046
1.7485,-0.2576,-1.7959,86.5649,51.542,-31.0
1.7,-0.2615,-1.7427,80.2214,48.9389,-33.6031
1.6609,-0.2659,-1.7178,74.0382,45.8015,-36.0916
1.6125,-0.2854,-1.6917,67.8931,42.2901,-38.2901
1.5684,-0.2913,-1.6655,62.229,39.0687,-39.4504
1.5308,-0.2952,-1.6375,56.5115,36.1832,-40.7405
1.498,-0.3015,-1.6057,51.3359,33.4122,-41.6336
1.4863,-0.3003,-1.6023,45.8473,30.8244,-41.687
1.4495,-0.3196,-1.5869,41.1221,28.6947,-42.3359
1.4207,-0.3247,-1.5757,36.5954,26.8626,-42.5649
1.3818,-0.335,-1.571,32.3893,25.0992,-42.5954
1.3357,-0.343,-1.5518,29.2901,23.3359,-42.8321
1.303,-0.3521,-1.5483,26.229,21.9008,-42.229
1.271,-0.3591,-1.5332,23.5267,20.5954,-41.3053
1.2302,-0.3662,-1.5247,20.7023,19.1603,-39.8092
1.2092,-0.3733,-1.5115,18.1298,17.6107,-37.8015
1.1768,-0.3855,-1.4907,15.2977,15.0153,-35.1527
1.1433,-0.3745,-1.4629,12.4046,11.8702,-32.3282
1.1533,-0.3477,-1.4822,9.2901,10.0687,-28.4733
1.094,-0.3521,-1.4612,6.3969,8.8244,-24.3053
1.1023,-0.355,-1.4707,3.1603,8.2214,-19.7099
1.0889,-0.3772,-1.4233,-0.8321,6.0458,-16.0305
1.0825,-0.3596,-1.3992,-5.4733,-0.2061,-14.2672
1.0942,-0.3306,-1.4268,-9.7252,-5.7939,-12.1069
1.1218,-0.3193,-1.4573,-13.8244,-8.8473,-9.4504
1.1262,-0.3232,-1.45,-16.9389,-11.8092,-6.9542
1.1396,-0.3501,-1.4253,-20.1832,-15.6412,-5.4427
1.1453,-0.3726,-1.4058,-23.1069,-19.9084,-4.542
1.1707,-0.3765,-1.3999,-26.2748,-23.7863,-4.1985
1.2075,-0.3662,-1.4282,-29.5114,-26.4504,-4.2214
1.2451,-0.3474,-1.4426,-33.5115,-27.7939,-4.5191
1.2732,-0.3245,-1.4614,-37.9008,-28.5344,-5.4351
1.2917,-0.3076,-1.4785,-42.3817,-29.1908,-7.1298
1.3164,-0.3003,-1.4963,-47.4962,-30.1374,-9.0916
1.3289,-0.281,-1.5156,-52.9771,-30.855,-10.9084
1.3447,-0.2659,-1.5264,-58.5038,-31.1221,-13.4198
1.3574,-0.2559,-1.5422,-64.626,-30.6947,-15.5954
1.3606,-0.2439,-1.5635,-70.5725,-29.1221,-17.6412
1.3657,-0.2341,-1.5608,-77.4122,-27.5725,-19.8092
1.3655,-0.2268,-1.5759,-84.1298,-26.5344,-22.0458
1.3589,-0.2095,-1.5757,-90.9237,-25.1603,-24.4656
1.3643,-0.207,-1.5813,-97.7099,-23.687,-26.7634
1.3567,-0.1936,-1.6057,-104.1756,-21.4733,-28.6947
1.3625,-0.1877,-1.5969,-111.0534,-18.6183,-30.5954
1.3604,-0.1802,-1.6211,-117.6947,-15.4046,-32.3969
1.3384,-0.1902,-1.6145,-124.1298,-12.1679,-34.1069
1.3379,-0.1873,-1.6001,-130.3359,-9.4962,-35.9084
1.3364,-0.1667,-1.6064,-139.1603,-4.4809,-37.8931
1.3242,-0.1672,-1.6135,-146.3969,-0.6565,-39.626
1.3057,-0.1719,-1.5928,-153.6947,2.0534,-41.3511
1.2917,-0.1731,-1.5977,-161.0611,4.4046,-42.6412
1.2803,-0.1895,-1.5906,-168.0,5.8321,-44.313
1.2732,-0.1914,-1.5706,-175.0305,6.4351,-46.1374
1.2607,-0.1973,-1.5654,-182.2748,7.0153,-47.6565
1.249,-0.1992,-1.5625,-189.4275,7.5725,-49.4046
1.2349,-0.1985,-1.5605,-196.7099,8.2214,-50.7176
1.2244,-0.2026,-1.5542,-203.9924,8.9924,-52.2672
1.2056,-0.1973,-1.5657,-211.084,9.5573,-53.7176
1.1907,-0.1963,-1.5674,-218.0076,9.8321,-55.1832
1.1692,-0.2,-1.5679,-225.3969,9.8092,-56.4885
1.1394,-0.2048,-1.5884,-232.6107,9.2214,-58.0305
1.1255,-0.2051,-1.585,-240.4504,7.9466,-60.0076
1.0996,-0.2148,-1.5813,-248.6412,6.5649,-61.4351
1.0737,-0.2253,-1.5886,-250.1374,4.5344,-62.5954
1.0313,-0.2407,-1.5891,-250.1374,1.5038,-64.2519
1.0012,-0.248,-1.5759,-250.1374,-2.8168,-65.6489
0.967,-0.2478,-1.5554,-250.1374,-7.6031,-66.9237
0.9375,-0.2537,-1.541,-250.1374,-12.6107,-67.855
0.9028,-0.2764,-1.5234,-250.1374,-17.8855,-68.4122
0.873,-0.28,-1.5095,-250.1374,-23.0534,-68.9313
0.8638,-0.2859,-1.4983,-250.1374,-28.3282,-69.145
0.8403,-0.3057,-1.4646,-250.1374,-33.4351,-69.0305
0.8188,-0.3281,-1.4321,-250.1374,-38.3511,-68.7557
0.7913,-0.3469,-1.4116,-250.1374,-43.084,-67.855
0.7561,-0.3743,-1.3809,-250.1374,-46.7023,-67.313
0.7336,-0.4106,-1.332,-250.1374,-50.145,-66.3893
0.7109,-0.4453,-1.2761,-250.1374,-53.6183,-65.0687
0.6863,-0.4802,-1.219,-250.1374,-57.0229,-63.4885
0.6702,-0.5037,-1.1782,-250.1374,-59.5649,-61.7481
0.6616,-0.5452,-1.1143,-250.1374,-61.7252,-58.9618
0.6484,-0.5559,-1.053,-250.1374,-62.9695,-56.1145
0.6345,-0.5583,-0.9856,-250.1374,-62.9847,-52.3435
0.6216,-0.5549,-0.9092,-250.1374,-62.2595,-48.0534
0.6194,-0.5566,-0.835,-250.1374,-60.374,-43.4275
0.6262,-0.5715,-0.7712,-250.1374,-57.5496,-38.2443
0.6257,-0.5903,-0.7212,-250.1374,-53.1908,-33.1756
0.6245,-0.6111,-0.6921,-250.1374,-48.687,-28.4275
0.6279,-0.6443,-0.6448,-250.1374,-42.7252,-22.7634
0.6409,-0.6792,-0.5945,-250.1374,-36.4427,-17.6794
0.6389,-0.7043,-0.5444,-250.1374,-29.6641,-12.9313
0.6379,-0.719,-0.48,-250.1374,-22.7328,-8.2901
0.6389,-0.7102,-0.4229,-250.1374,-15.7939,-4.0076
0.6401,-0.7041,-0.3516,-250.1374,-9.1374,-0.0305
0.6448,-0.6985,-0.2869,-250.1374,-2.3817,3.8397
0.6565,-0.6787,-0.2183,-250.1374,4.4198,7.626
0.6519,-0.6682,-0.1777,-250.1374,11.5344,10.6947
0.6667,-0.6614,-0.1243,-250.1374,18.9008,13.4809
0.6646,-0.6504,-0.0659,-250.1374,26.5191,15.9389
0.6848,-0.6504,-0.0286,-250.1374,34.3664,18.3206
0.6865,-0.6541,0.021,-250.1374,42.0763,20.084
0.6899,-0.6694,0.0779,-250.1374,49.771,22.0763
0.6897,-0.6833,0.1243,-250.1374,58.542,24.2901
0.6848,-0.697,0.1729,-250.1374,65.8473,25.8015
0.6824,-0.7095,0.2253,-250.1374,71.8168,26.9084
0.687,-0.7217,0.2908,-250.1374,76.7557,28.0992
0.675,-0.739,0.3594,-250.1374,80.0153,29.0382
0.675,-0.7498,0.4326,-250.1374,81.5954,29.3969
0.6719,-0.7607,0.4692,-250.1374,81.9237,29.9466
0.6768,-0.78,0.5613,-250.1374,80.1679,29.8015
0.6768,-0.783,0.6555,-250.1374,76.9008,29.4351
0.6758,-0.7883,0.7451,-250.1374,72.374,28.3893
0.6863,-0.7957,0.8335,-250.1374,66.8702,27.0153
0.689,-0.8081,0.9285,-250.1374,60.4351,24.9618
0.6936,-0.8225,1.0247,-250.1374,53.2443,22.4351
0.7051,-0.8354,1.1196,-250.1374,45.7176,20.0
0.7051,-0.8391,1.1738,-250.1374,37.4198,17.4275
0.7129,-0.8491,1.2566,-250.1374,27.4427,14.0611
0.7151,-0.8655,1.3545,-250.1374,17.7939,11.2366
0.71,-0.8721,1.4326,-250.1374,7.7176,8.6565
0.7129,-0.8687,1.5029,-250.1374,-2.2214,6.3206
0.7205,-0.8523,1.5918,-250.1374,-12.6947,4.6718
0.7253,-0.8203,1.6528,-250.1374,-23.687,3.5115
0.7522,-0.8267,1.6934,-250.1374,-33.6641,3.0153
0.7678,-0.834,1.7273,-250.1374,-41.8321,3.2061
0.7778,-0.8311,1.7375,-250.1374,-48.5573,3.3893
0.7979,-0.8315,1.748,-250.1374,-53.4504,4.5267
0.8235,-0.8113,1.7751,-250.1374,-56.7023,5.9618
0.8564,-0.7917,1.8057,-250.1374,-59.1908,7.7786
0.8884,-0.7612,1.8057,-250.1374,-59.4275,9.8626
0.9192,-0.7324,1.8113,-233.7481,-57.1679,12.4733
0.946,-0.7002,1.8064,-217.3969,-53.9313,15.0611
0.9641,-0.6719,1.7988,-200.8244,-49.1603,17.5191
0.9863,-0.6562,1.782,-185.6412,-43.0076,20.313
1.0061,-0.634,1.7708,-167.916,-36.0992,22.9618
1.0298,-0.6172,1.7378,-151.6412,-29.1985,25.1908
1.0391,-0.5964,1.697,-135.8779,-21.7328,27.4733
1.062,-0.5808,1.6467,-120.9695,-13.7939,30.0687
1.0593,-0.5588,1.6035,-106.6031,-6.5267,32.916
1.0686,-0.5405,1.5452,-92.8015,0.4504,35.3511
1.0745,-0.512,1.4866,-80.0,7.0382,37.9771
1.0793,-0.5073,1.4612,-68.9389,12.5573,40.916
1.0764,-0.4846,1.3967,-57.3511,17.2672,43.8168
1.094,-0.4578,1.3372,-47.229,21.4198,46.084
1.1125,-0.4395,1.2688,-38.2061,25.3282,49.1298
1.1265,-0.4187,1.2124,-30.0611,27.8779,51.0611
1.1411,-0.4055,1.1389,-22.5267,30.0,52.4351
1.1636,-0.386,1.0959,-15.7481,31.4962,53.8321
1.1831,-0.3757,1.04,-9.9389,31.6718,54.0687
1.2051,-0.3569,0.9775,-5.0916,31.2824,53.8092
1.2163,-0.3491,0.949,-0.8397,30.0229,53.4275
1.2385,-0.3274,0.9158,2.7099,27.771,52.1221
1.2559,-0.3193,0.8643,5.9084,25.0687,50.1298
1.2761,-0.3059,0.8428,8.2977,21.3969,47.7252
1.3047,-0.2871,0.7898,9.8855,17.4046,45.2443
1.3181,-0.2664,0.7439,10.9542,13.3664,41.8702
1.324,-0.248,0.7078,11.8702,8.313,37.5802
1.3389,-0.2373,0.6675,12.2443,3.2901,33.8931
1.344,-0.2185,0.616,12.4809,-0.7099,30.0992
1.3428,-0.2043,0.5969,12.0992,-5.9466,25.855
1.3403,-0.1895,0.5471,11.7252,-9.6412,22.6183
1.3428,-0.176,0.502,11.2366,-12.4885,19.5114
1.3374,-0.1636,0.4641,10.9847,-15.8321,16.8397
1.3313,-0.1506,0.4021,10.5649,-18.4962,15.3206
1.3333,-0.1387,0.3679,10.1069,-20.1298,13.5649
1.3313,-0.1309,0.3354,9.8626,-22.0229,12.3435
1.3264,-0.123,0.293,9.3969,-22.7176,11.5954
1.3293,-0.1108,0.2478,9.1603,-22.6794,10.9771
1.3423,-0.0884,0.2136,8.5191,-21.8626,10.6641
1.3291,-0.0801,0.1675,7.7634,-20.687,9.7939
1.335,-0.0676,0.1458,6.687,-18.7023,9.0076
1.332,-0.0493,0.1292,5.5954,-17.1985,8.2137
1.3308,-0.0293,0.1184,4.3282,-16.0992,7.5191
1.3259,-0.0051,0.1045,2.7786,-14.4198,6.4427
1.3267,0.0051,0.084,1.3053,-12.229,6.1603
1.3333,0.0134,0.0669,-0.3817,-9.2137,5.542
1.3203,0.0242,0.0671,-2.0534,-5.9618,4.9695
1.3164,0.0244,0.051,-3.8092,-2.3664,4.8168
1.2957,0.0312,0.073,-5.4427,0.5038,4.313
1.2852,0.042,0.0818,-7.0611,2.5802,3.9542
1.2773,0.0549,0.0894,-8.5649,5.542,3.4885
1.2598,0.0579,0.0947,-9.7786,8.916,3.1298
1.2625,0.0623,0.0859,-10.9237,12.2519,3.2366
1.2385,0.051,0.104,-11.5038,15.2977,3.1985
1.2209,0.0469,0.123,-12.1069,17.3206,3.1145
1.1931,0.0369,0.146,-12.5267,19.084,3.5344
1.1755,0.0261,0.1624,-12.8397,20.1069,3.458
1.1509,0.0271,0.1997,-12.9008,20.8321,3.771
1.136,0.0295,0.2261,-12.771,21.6641,4.1603
1.1208,0.0212,0.252,-12.5115,21.9237,4.7252
1.1221,0.031,0.2622,-12.1985,22.4046,5.4046
1.1106,0.0256,0.2859,-11.5573,22.9237,5.7786
1.1028,0.0208,0.2957,-10.9924,23.2977,6.4122
1.0977,0.0164,0.3391,-10.3206,23.6336,6.9542
1.0908,0.012,0.3528,-8.9847,23.8931,7.1298
1.0876,0.0076,0.365,-7.1145,24.0382,7.1756
1.0854,0.0056,0.3823,-5.3282,23.8015,7.4504
1.0789,-0.002,0.4138,-3.1221,23.313,7.3206
1.0708,-0.0107,0.4292,-0.4122,21.3359,6.855
1.0669,-0.0264,0.4343,2.7252,18.8626,6.2214
1.062,-0.0337,0.4355,6.1145,16.8244,5.7176
1.0518,-0.0447,0.4292,9.5573,15.1985,5.6794
1.0532,-0.0457,0.4141,12.5267,13.4733,5.4427
1.0557,-0.0513,0.4187,15.1985,11.4656,5.0382
1.053,-0.0415,0.4014,17.4504,8.4504,4.6183
1.0403,-0.0325,0.3987,19.2214,4.5267,3.9771
1.0383,-0.0264,0.385,20.7023,0.0305,3.0763
1.0403,-0.0151,0.3604,21.8626,-4.7634,1.9847
1.0488,-0.0076,0.3289,22.7328,-8.626,1.8626
1.0491,-0.0068,0.3037,23.5496,-12.0305,1.3893
1.0662,-0.0051,0.2654,24.6565,-15.2901,1.1832
1.071,-0.0063,0.2332,25.7328,-16.9008,1.1832
1.0837,-0.0107,0.1953,26.4046,-17.8397,1.0
1.0908,-0.0088,0.1602,27.9389,-17.6412,0.8779
1.1052,-0.0088,0.1292,29.0076,-17.0153,0.7863
1.1104,-0.0117,0.1045,30.2519,-15.8092,0.771
1.1238,-0.0081,0.0784,31.3893,-14.1145,0.6031
1.1265,0.0044,0.0454,32.4809,-12.4198,0.2137
1.1265,0.0081,0.0352,33.0534,-10.3206,0.0229
1.1265,0.0164,0.01,33.5496,-8.3664,-0.4275
1.1343,0.019,-0.0022,33.5802,-5.9847,-1.1145
1.1313,0.0276,-0.0103,33.3435,-3.8015,-1.1527
1.1228,0.031,-0.0386,33.1679,-1.2672,-1.5115
1.1221,0.0308,-0.0481,32.8702,1.5725,-1.6565
1.1111,0.0466,-0.0554,32.3282,4.229,-1.5496
1.1018,0.051,-0.0537,31.7634,6.458,-1.8092
1.0842,0.0532,-0.0676,31.0534,8.5573,-1.8931
1.0798,0.0542,-0.063,30.6031,10.1221,-1.8779
1.0647,0.0542,-0.0701,30.2061,11.5191,-1.9618
1.0464,0.0452,-0.0698,29.3053,12.4656,-1.9542
1.0254,0.0535,-0.073,28.7176,13.2595,-1.9542
1.0083,0.0623,-0.0774,28.1908,13.8473,-1.626
0.9971,0.0715,-0.0842,27.8244,14.4046,-1.5725
0.9773,0.0786,-0.0811,27.3817,14.1832,-1.0916
0.9592,0.0903,-0.0706,26.6641,13.4198,-0.626
0.9375,0.0862,-0.0811,26.1069,12.1679,-0.145
0.9348,0.0789,-0.0833,25.5344,11.5496,0.8244
0.918,0.0718,-0.1011,24.687,10.5878,1.8397
0.9138,0.0913,-0.0989,23.374,9.8473,3.1298
0.9126,0.1074,-0.1008,21.9084,9.0305,4.5573
0.9114,0.1123,-0.1052,20.7634,7.6489,6.2137
0.9077,0.1133,-0.0947,19.1527,6.1908,7.8244
0.9063,0.1091,-0.094,17.5802,4.3435,9.3053
0.9197,0.1106,-0.0996,15.7557,2.1908,10.6412
0.925,0.1001,-0.0847,14.2748,-0.5878,11.4809
0.9131,0.0813,-0.0569,12.8779,-3.8015,11.9618
0.9053,0.0725,-0.0281,11.8779,-8.1069,12.5191
0.9675,0.0901,-0.0605,11.1908,-9.0229,13.5496
0.95,0.0723,-0.0317,10.2214,-9.7557,14.1069
0.9868,0.0786,-0.0273,8.9466,-11.6336,14.4962
1.0083,0.0723,-0.0603,7.9924,-11.5191,14.9237
1.0171,0.0459,-0.0366,8.2061,-12.5878,14.6031
1.022,0.0225,-0.0066,8.9237,-17.0763,14.0076
1.0386,0.0107,0.0142,9.3893,-20.8321,13.4351
1.0564,0.0037,-0.0039,10.3053,-21.5878,13.0458
1.0752,0.0054,-0.0005,11.374,-21.9542,12.9542
1.0889,0.0022,0.0044,12.6718,-21.8244,12.8473
1.1057,0.0044,-0.0034,13.8397,-20.7099,13.0687
1.1194,-0.0037,0.0029,15.6107,-20.3435,12.855
1.1448,-0.0205,-0.0034,16.9771,-20.4733,12.7481
1.1565,-0.0234,-0.0305,18.5496,-20.7252,12.1069
1.1709,-0.0349,-0.0237,20.3435,-21.0305,11.2672
1.1863,-0.0422,-0.0491,22.1069,-20.4504,10.1298
1.198,-0.0334,-0.0525,23.458,-19.0534,8.7252
1.2131,-0.0247,-0.064,25.0076,-16.687,6.9618
1.229,-0.0188,-0.085,25.9924,-14.084,5.542
1.229,-0.0183,-0.0962,26.8244,-11.4809,4.4733
1.2305,0.0017,-0.1101,27.5038,-9.1298,2.9924
1.228,-0.0066,-0.1199,27.9695,-6.145,1.9466
1.2231,-0.0107,-0.1299,28.0992,-3.7176,0.9466
1.2043,-0.0015,-0.1479,28.6031,-1.9389,0.0763
1.2036,0.0015,-0.1467,28.5802,-0.2366,-1.2672
1.2002,0.0088,-0.1497,28.2748,1.9389,-1.7557
1.1826,0.0076,-0.1594,28.1527,3.4275,-2.3435
1.168,0.0073,-0.1653,27.4962,5.2443,-2.9924
1.1582,0.0044,-0.1641,27.145,6.542,-3.4275
1.1433,0.0105,-0.1655,26.3206,7.6336,-3.8855
1.1316,0.0171,-0.165,25.3282,7.9237,-4.2748
1.1194,0.0205,-0.1494,24.7405,7.458,-4.5649
1.1077,0.0278,-0.1445,23.5649,6.3893,-4.8779
1.1042,0.0227,-0.1531,22.9542,5.2214,-5.4656
1.093,0.0322,-0.1611,21.8702,4.1832,-5.4733
1.0906,0.0427,-0.166,20.6794,3.6412,-5.542
1.0796,0.0449,-0.1787,19.4122,3.3206,-5.6641
1.0767,0.0444,-0.1897,18.1832,3.3282,-5.7405
1.0735,0.051,-0.1936,16.6641,3.2443,-5.7481
1.0593,0.0498,-0.1877,15.1069,3.0763,-5.8702
1.0571,0.0615,-0.1963,14.0229,2.3969,-5.9542
1.0476,0.0608,-0.1882,12.4504,1.9771,-5.8168
1.0442,0.0579,-0.198,11.145,1.5649,-5.7481
1.0398,0.0657,-0.2026,9.8092,0.8244,-5.8092
1.02,0.0598,-0.1929,8.626,0.3053,-5.7176
1.0093,0.0647,-0.196,7.0916,-0.5573,-5.4122
1.01,0.0715,-0.1804,6.0153,-1.5649,-5.1527
0.9983,0.0708,-0.1772,4.6489,-2.6794,-4.9237
0.9849,0.0693,-0.1667,3.7252,-3.9924,-4.1527
0.9819,0.072,-0.1575,2.4351,-5.2748,-3.5725
0.9805,0.0669,-0.1506,1.4351,-6.458,-2.9695
0.9834,0.071,-0.1497,0.542,-7.9542,-2.2595
0.9785,0.0603,-0.1499,0.0,-9.2519,-1.3206
0.9797,0.0579,-0.1306,-0.9542,-10.4351,-0.6336
0.9814,0.0576,-0.1233,-1.2137,-11.229,0.4504
0.9839,0.0435,-0.1201,-1.5191,-11.9847,1.229
0.9863,0.041,-0.1187,-1.5802,-12.2901,1.8244
0.9973,0.0349,-0.0986,-1.8092,-12.5191,2.7634
1.0007,0.0342,-0.0999,-1.3969,-12.1374,3.4275
1.011,0.0332,-0.094,-0.9618,-12.0458,4.0458
1.0222,0.0251,-0.0833,-0.3359,-11.2977,4.7023
1.0261,0.0217,-0.0684,0.3893,-10.3969,5.2061
1.0408,0.019,-0.0557,1.4733,-9.0763,5.4962
1.0542,0.0151,-0.0583,2.4809,-7.2366,5.9466
1.0535,0.0112,-0.0581,3.8626,-5.3511,6.5191
1.0635,0.0029,-0.0452,5.229,-2.9695,7.2824
1.0627,0.0015,-0.0439,6.7023,-0.9237,7.5573
1.0645,-0.0037,-0.0291,8.5725,1.2366,8.1145
1.0681,-0.0098,-0.0286,10.3893,2.771,8.5496
1.0693,-0.0159,-0.0127,11.9313,3.7328,9.0458
1.0813,-0.0173,-0.0178,13.9389,4.6641,9.3435
1.0793,-0.0154,-0.0068,15.9771,5.313,9.7634
1.0862,-0.0154,-0.0085,17.374,6.5496,9.6336
1.0928,-0.0159,-0.0132,18.6412,7.4427,9.6565
1.0945,-0.0127,-0.0161,19.6718,8.0229,9.687
1.1021,-0.0081,-0.0234,20.687,8.0992,9.3359
