ax,ay,az,gx,gy,gz
1.3254,0.2068,0.446,-0.3206,-12.4046,28.229
1.323,0.1978,0.4751,0.855,-15.4733,27.3053
1.3284,0.1926,0.4924,1.3969,-18.7939,26.6641
1.3318,0.1829,0.5125,2.4198,-22.3588,25.5954
1.3376,0.1741,0.5386,3.5802,-26.5267,25.0458
1.3435,0.1726,0.5605,4.9695,-30.374,25.1145
1.3472,0.1594,0.5801,6.145,-33.7557,24.5802
1.3528,0.1394,0.5886,7.7863,-36.5954,24.5649
1.3718,0.1392,0.6008,9.4198,-39.8397,25.0458
1.3813,0.1362,0.625,11.5344,-42.4046,25.1374
1.397,0.1326,0.647,13.8473,-44.2137,25.916
1.4111,0.1326,0.6462,16.145,-45.8321,26.9389
1.4382,0.135,0.665,18.7405,-47.1527,27.8244
1.4595,0.1252,0.666,22.1756,-47.5649,28.9695
1.4822,0.127,0.6877,25.687,-47.9313,30.1069
1.5142,0.1113,0.7073,29.2672,-47.9084,31.4427
1.5452,0.104,0.7048,33.0153,-47.7405,32.542
1.5852,0.1011,0.7275,37.2977,-47.3359,34.0916
1.6208,0.0955,0.7422,41.2824,-47.0687,35.1603
1.6421,0.094,0.7407,45.4275,-46.8321,36.1908
1.6858,0.0798,0.7402,50.0305,-46.1527,36.9466
1.7351,0.0596,0.7585,54.4046,-45.8244,37.3817
1.781,0.0361,0.7537,58.8092,-45.5802,37.3893
1.8281,0.0154,0.7471,62.5191,-45.8244,37.458
1.8906,-0.0017,0.7437,66.2137,-45.8244,37.2366
1.9431,-0.0239,0.7415,69.9008,-46.8321,36.0076
1.9895,-0.0471,0.739,73.1756,-48.2672,34.6947
1.9999,-0.0718,0.7454,76.3969,-49.7176,33.313
1.9999,-0.0745,0.7544,79.3969,-51.4198,30.8855
1.9999,-0.0925,0.738,81.9542,-53.1221,28.3206
1.9999,-0.1179,0.7288,84.7634,-54.9847,25.3206
1.9999,-0.1377,0.7214,87.3664,-56.8702,21.7252
1.9999,-0.1592,0.71,89.4885,-58.6641,17.5038
1.9999,-0.1819,0.6943,91.9542,-60.5267,12.6183
1.9999,-0.2104,0.6836,94.5725,-62.1145,7.626
1.9999,-0.2412,0.6704,96.6107,-64.1603,1.7786
1.9999,-0.2649,0.6538,98.687,-65.9542,-4.5344
1.9999,-0.2817,0.6401,101.2366,-69.145,-13.3969
1.9999,-0.3093,0.637,103.374,-71.7863,-20.7557
1.9999,-0.3213,0.6274,105.1527,-74.6718,-28.6412
1.9999,-0.3364,0.6096,106.8092,-77.2519,-36.7252
1.9999,-0.3413,0.6086,108.7863,-79.1985,-44.9237
1.9999,-0.3467,0.5898,110.7328,-79.7863,-53.0992
1.9999,-0.3687,0.5503,112.0611,-79.2443,-61.0
1.9999,-0.3826,0.5327,113.4733,-79.1756,-68.8092
1.9999,-0.4011,0.5247,115.0611,-79.3282,-76.6031
1.9999,-0.4119,0.5327,115.7328,-80.1756,-84.1908
1.9999,-0.4285,0.52,118.9313,-82.0153,-93.2061
1.9999,-0.4438,0.5034,120.6107,-82.9237,-99.8244
1.9999,-0.4409,0.4937,121.687,-82.7557,-105.916
1.9999,-0.4585,0.4907,121.9084,-82.9008,-114.1298
1.9999,-0.4592,0.4941,125.9618,-83.145,-121.5649
1.9999,-0.4675,0.4775,127.9008,-82.2443,-128.2977
1.9999,-0.4795,0.4846,130.8015,-81.7939,-135.0611
1.9999,-0.479,0.4548,133.6794,-80.771,-141.6947
1.9999,-0.4832,0.4478,136.8473,-79.4809,-147.2214
1.9999,-0.4883,0.437,140.229,-78.7557,-152.3893
1.9999,-0.4958,0.4275,143.5267,-77.9847,-157.6794
1.9999,-0.499,0.4321,146.9313,-77.0687,-162.3588
1.9999,-0.4927,0.4155,150.0687,-75.9924,-166.5878
1.9999,-0.4939,0.3892,153.458,-74.3969,-170.4504
1.9999,-0.4963,0.3953,156.7252,-74.1298,-174.2214
1.9795,-0.4858,0.376,160.0382,-73.458,-177.5496
1.9495,-0.4905,0.3503,162.8168,-72.855,-181.0458
1.8953,-0.4902,0.3518,165.855,-72.4657,-184.2061
1.8572,-0.502,0.3145,168.4122,-71.3588,-187.3969
1.8391,-0.4998,0.3079,171.1985,-70.9389,-190.4886
1.8105,-0.5171,0.2832,174.1298,-71.0534,-194.0611
1.7656,-0.5391,0.2932,177.1603,-74.2137,-199.0153
1.7346,-0.5403,0.2886,180.0992,-79.6947,-204.0763
1.6975,-0.5208,0.252,182.7939,-84.5649,-209.7099
1.6479,-0.5083,0.2192,184.8702,-88.7252,-214.8855
1.6265,-0.4741,0.1355,186.9618,-89.8397,-218.6794
1.5996,-0.4548,0.0532,188.5496,-85.229,-220.9771
1.531,-0.4478,0.0967,190.3282,-80.1603,-222.4122
1.4851,-0.4592,0.0427,191.5878,-75.5115,-223.4275
1.4346,-0.4636,0.0022,192.4351,-72.6031,-224.4427
1.3728,-0.4675,-0.0349,193.2672,-71.5115,-225.3206
1.3359,-0.4712,-0.0554,194.0916,-72.0229,-226.3359
1.2925,-0.4622,-0.0972,194.9618,-72.8015,-227.5343
1.2634,-0.4495,-0.1345,195.5649,-72.626,-227.6718
1.2307,-0.4277,-0.1729,195.5191,-71.687,-227.8244
1.2029,-0.405,-0.2092,195.2672,-68.7634,-227.4809
1.1599,-0.3967,-0.1863,194.9466,-65.3435,-227.0611
1.1294,-0.3792,-0.196,194.855,-62.1374,-226.8244
1.1414,-0.4109,-0.2136,195.3664,-58.8931,-227.0153
1.0459,-0.408,-0.1431,196.0153,-63.1756,-229.5725
1.0498,-0.3987,-0.1938,196.2901,-67.4198,-231.3512
1.0215,-0.396,-0.2498,197.2366,-69.3053,-233.8473
1.012,-0.3596,-0.2903,197.3817,-72.1603,-235.7023
1.043,-0.2935,-0.4839,196.5038,-64.3664,-234.3817
0.9553,-0.3015,-0.489,196.1832,-52.3282,-231.0916
0.9224,-0.3123,-0.4858,195.6794,-47.0458,-229.542
0.8799,-0.3049,-0.5356,194.6107,-38.6336,-226.3053
0.8115,-0.3262,-0.4897,193.8397,-34.2595,-223.4733
0.7283,-0.3298,-0.3792,193.4122,-34.3359,-221.4809
0.707,-0.3193,-0.4138,192.2977,-33.6794,-219.2901
0.6816,-0.302,-0.4575,191.0687,-32.855,-216.9618
0.6626,-0.2842,-0.5024,189.374,-31.3282,-214.7252
0.6487,-0.2593,-0.5569,187.458,-28.5573,-212.6718
0.6265,-0.2388,-0.5933,185.3512,-25.0611,-210.771
0.5994,-0.2349,-0.6038,183.3512,-21.916,-208.5725
0.5691,-0.2236,-0.5886,181.2672,-19.4733,-207.0534
0.5071,-0.22,-0.4985,178.9389,-17.6336,-205.4275
0.4663,-0.2224,-0.5037,176.6794,-16.7328,-203.9771
0.4302,-0.2078,-0.5068,174.8855,-16.1908,-202.7939
0.3774,-0.2012,-0.5181,172.9237,-16.2061,-201.1374
0.3396,-0.1912,-0.5327,170.855,-15.855,-199.4657
0.2991,-0.179,-0.5366,169.3206,-16.1069,-197.4351
0.2522,-0.1614,-0.5569,167.7557,-16.1221,-194.8015
0.2002,-0.1562,-0.5789,166.4504,-16.0305,-191.8626
0.1479,-0.1545,-0.5833,165.0763,-16.5573,-188.2748
0.1045,-0.1494,-0.5415,163.4962,-17.6565,-184.0076
0.0544,-0.1394,-0.5369,162.0076,-19.313,-179.2901
0.0146,-0.1279,-0.5356,160.2977,-21.5878,-174.3588
-0.0261,-0.1187,-0.552,158.4275,-23.8779,-168.7634
-0.061,-0.1106,-0.5552,157.374,-26.1145,-163.2214
-0.0872,-0.1042,-0.5635,155.542,-28.8855,-157.1069
-0.1047,-0.0872,-0.5718,154.4733,-31.3664,-150.7023
-0.1282,-0.0737,-0.5945,153.1832,-33.1603,-144.3664
-0.1462,-0.0667,-0.6135,152.4122,-34.4656,-138.3817
-0.1497,-0.0544,-0.604,151.2061,-35.0687,-132.313
-0.1726,-0.0486,-0.6147,150.3664,-35.0382,-126.2061
-0.1777,-0.0432,-0.6301,149.626,-34.855,-119.6794
-0.189,-0.0515,-0.6433,149.0534,-34.2519,-113.6718
-0.1936,-0.0537,-0.656,148.8092,-33.4122,-107.4046
-0.2007,-0.0498,-0.6836,148.2748,-32.3206,-101.5496
-0.1936,-0.054,-0.7004,147.8855,-31.4886,-94.2977
-0.1895,-0.0461,-0.7205,147.6183,-30.6336,-89.2519
-0.1929,-0.0483,-0.7356,147.4886,-30.0382,-82.9237
-0.179,-0.0461,-0.7542,146.8244,-29.458,-76.7328
-0.1868,-0.0496,-0.7788,146.2366,-29.4351,-71.0534
-0.1692,-0.0564,-0.7881,145.7405,-29.8092,-65.6031
-0.1633,-0.054,-0.8145,144.9771,-30.2824,-60.5954
-0.1409,-0.0518,-0.843,143.9618,-30.5649,-55.8244
-0.1223,-0.0588,-0.8782,143.0534,-30.8168,-51.4198
-0.1023,-0.0571,-0.9041,141.6107,-30.9008,-47.2901
-0.0869,-0.0552,-0.9304,140.5954,-31.4122,-43.9771
-0.0801,-0.0544,-0.9424,139.3664,-31.9924,-40.1069
-0.0564,-0.0571,-0.9788,137.8015,-32.1908,-37.0076
-0.0374,-0.0632,-1.0073,136.3359,-32.7252,-33.8931
-0.0083,-0.0593,-1.0354,134.6031,-33.2824,-31.2977
0.009,-0.0679,-1.0645,133.0916,-33.542,-29.084
0.0437,-0.0586,-1.0962,131.1908,-33.2595,-26.542
0.0652,-0.0632,-1.1138,129.3206,-32.916,-24.8626
0.0957,-0.0598,-1.1462,127.1527,-32.5344,-22.8473
0.1189,-0.0625,-1.1716,125.3206,-31.2214,-22.2214
0.1379,-0.0618,-1.2087,122.8321,-30.1908,-21.2748
0.167,-0.0615,-1.2209,122.0229,-28.6031,-20.8092
0.1846,-0.0618,-1.2524,118.8702,-26.7328,-20.4122
0.1995,-0.053,-1.2542,117.9542,-24.6565,-20.2672
0.2104,-0.0449,-1.2942,114.7786,-22.7863,-20.2137
0.2251,-0.0427,-1.3008,112.2595,-20.9695,-20.2977
0.2375,-0.0415,-1.3132,110.1679,-19.6336,-20.1985
0.2493,-0.0354,-1.3428,107.2824,-18.2137,-20.084
0.2617,-0.0469,-1.3713,104.5725,-16.8473,-19.8702
0.2744,-0.0515,-1.3955,102.0305,-15.0534,-19.5725
0.283,-0.0469,-1.4294,99.1985,-13.3511,-19.6107
0.2856,-0.0432,-1.446,96.374,-11.5725,-19.3435
0.3076,-0.0396,-1.4685,93.1298,-9.4656,-18.9771
0.3191,-0.033,-1.4883,89.8168,-6.9924,-18.7863
0.3203,-0.0212,-1.5159,86.6718,-4.8397,-18.7405
0.3386,-0.0161,-1.5315,82.8473,-2.5191,-18.7252
0.3342,-0.0134,-1.5483,78.6031,-0.2672,-18.8244
0.3386,-0.0195,-1.571,74.5115,1.916,-18.9542
0.3423,-0.0139,-1.5833,69.9237,4.2519,-18.8855
0.3442,-0.0117,-1.5886,65.1298,6.2595,-19.0
0.3489,-0.0125,-1.5896,60.0076,7.687,-18.626
0.3452,-0.0098,-1.5967,55.0916,8.5954,-18.4504
0.3484,-0.0071,-1.5969,50.0305,9.1603,-17.8015
0.3533,-0.0181,-1.5869,44.5725,8.6794,-17.5191
0.3533,-0.0291,-1.5989,38.9847,7.5573,-17.2137
0.354,-0.032,-1.5918,33.9618,5.9618,-16.6183
0.3584,-0.0479,-1.5806,28.8626,3.7863,-15.9771
0.3525,-0.052,-1.5891,23.8626,1.1145,-15.6107
0.3503,-0.0593,-1.5796,18.6489,-2.4504,-15.2137
0.3655,-0.0698,-1.574,13.8473,-6.855,-15.0611
0.3623,-0.0823,-1.5679,9.1832,-11.3893,-14.6336
0.3721,-0.0889,-1.5686,5.0229,-16.4351,-13.9771
0.3835,-0.0906,-1.5579,0.5496,-22.2061,-13.626
0.3967,-0.0928,-1.5652,-3.458,-27.9924,-13.2443
0.415,-0.0962,-1.5801,-7.1145,-33.7252,-12.5496
0.416,-0.0957,-1.5808,-10.3817,-39.3359,-11.8473
0.4255,-0.1011,-1.5737,-14.1603,-45.9924,-11.2214
0.4495,-0.1106,-1.5984,-17.4122,-51.771,-10.2824
0.4731,-0.106,-1.6069,-21.0534,-57.7557,-9.4275
0.491,-0.0964,-1.6201,-24.3511,-63.2061,-8.9389
0.5293,-0.0916,-1.6292,-27.8092,-68.5343,-8.4046
0.5601,-0.0999,-1.6592,-31.4962,-73.2977,-7.6641
0.5925,-0.1106,-1.6855,-35.2443,-77.6489,-7.0305
0.6272,-0.1079,-1.7166,-39.3893,-81.9695,-6.7557
0.6472,-0.1057,-1.73,-42.916,-85.0229,-6.1756
0.6848,-0.1057,-1.7676,-47.2672,-88.2824,-5.9771
0.7332,-0.1045,-1.7839,-51.6794,-89.9084,-6.2214
0.7644,-0.0967,-1.8105,-56.0534,-93.9542,-6.4962
0.8059,-0.0859,-1.8386,-60.7328,-95.6565,-7.313
0.8418,-0.075,-1.8669,-66.374,-95.1527,-8.0611
0.8835,-0.0574,-1.8777,-72.0534,-94.9771,-9.0153
0.9238,-0.0369,-1.8926,-77.5267,-97.8779,-10.3588
0.9556,-0.0264,-1.9104,-83.1985,-98.7099,-12.0
0.9775,-0.0273,-1.9109,-89.4657,-99.6641,-13.8931
1.0112,-0.0166,-1.9275,-95.7252,-100.6107,-16.0382
1.0396,-0.0151,-1.9443,-102.3435,-101.542,-18.6107
1.0786,-0.0129,-1.958,-109.0916,-102.0229,-21.1908
1.1025,-0.0063,-1.9656,-115.9389,-102.5878,-23.5496
1.1387,-0.0127,-1.9727,-122.9084,-102.8015,-26.8473
1.1699,-0.0061,-1.979,-130.0611,-103.0611,-30.0076
1.2004,-0.0073,-1.9958,-137.1527,-102.5115,-33.0687
1.2117,-0.0073,-1.9902,-144.2672,-102.0153,-36.0916
1.2424,-0.0046,-1.9922,-152.9771,-101.3282,-40.9618
1.2607,-0.0076,-2.0,-161.1221,-100.0687,-45.1145
1.2725,-0.0103,-1.998,-168.3053,-99.0687,-48.8397
1.2778,-0.0159,-2.0,-175.7481,-95.1832,-52.7557
1.2925,-0.0115,-2.0,-182.6488,-92.6718,-56.7863
1.2798,-0.0195,-1.9949,-189.8321,-91.855,-60.4122
1.2778,-0.0239,-1.9854,-197.0076,-88.8168,-63.8397
1.2671,-0.0327,-1.9714,-203.771,-84.4657,-67.4046
1.2573,-0.0391,-1.9524,-211.0382,-80.687,-70.626
1.2388,-0.0535,-1.926,-218.0076,-76.8779,-73.4427
1.2122,-0.0596,-1.9038,-224.9618,-73.1985,-75.8321
1.2065,-0.0596,-1.8921,-231.4351,-69.4122,-77.8855
1.1816,-0.0681,-1.8564,-237.8855,-65.5496,-79.6107
1.157,-0.0654,-1.8198,-244.0076,-61.687,-81.2061
1.1235,-0.0618,-1.7788,-249.5496,-58.1527,-82.916
1.0962,-0.0537,-1.7493,-250.1374,-54.6183,-84.0
1.0586,-0.043,-1.7361,-250.1374,-50.8855,-85.2748
1.0234,-0.0378,-1.7058,-250.1374,-47.0229,-85.7634
0.9814,-0.0154,-1.6694,-250.1374,-43.6031,-86.1221
0.968,-0.0085,-1.6458,-250.1374,-40.6107,-86.6794
0.9229,0.0171,-1.6084,-250.1374,-38.229,-86.7252
0.887,0.0425,-1.5703,-250.1374,-36.6489,-86.1374
0.8445,0.0635,-1.5344,-250.1374,-35.5115,-85.2443
0.8159,0.0789,-1.4934,-250.1374,-35.2901,-84.1527
0.783,0.1025,-1.4629,-250.1374,-35.8244,-82.5954
0.749,0.1099,-1.425,-250.1374,-37.0687,-81.4198
0.7209,0.1277,-1.3926,-250.1374,-39.1603,-79.9466
0.7129,0.1326,-1.3752,-250.1374,-41.9618,-78.3053
0.6838,0.1458,-1.3386,-250.1374,-45.8855,-76.6412
0.6702,0.158,-1.3215,-250.1374,-50.687,-75.229
0.6421,0.1663,-1.2866,-250.1374,-56.1298,-73.8931
0.6382,0.1604,-1.2639,-250.1374,-62.0,-73.0992
0.6191,0.155,-1.2493,-250.1374,-68.6107,-72.2519
0.5981,0.1584,-1.2239,-250.1374,-75.8168,-71.7557
0.5896,0.1624,-1.2002,-250.1374,-83.3435,-71.1298
0.5713,0.1729,-1.1909,-250.1374,-92.8321,-71.0153
0.5569,0.1663,-1.1843,-250.1374,-100.8855,-70.4733
0.5427,0.1804,-1.1431,-250.1374,-110.4733,-69.8015
0.5303,0.187,-1.1121,-250.1374,-122.2595,-69.3817
0.519,0.1772,-1.0864,-250.1374,-133.084,-68.4198
0.5237,0.1694,-1.0706,-250.1374,-143.6718,-66.8855
0.5137,0.1404,-1.0515,-250.1374,-154.5267,-65.2061
0.5127,0.1145,-1.0159,-250.1374,-166.1756,-63.5344
0.5149,0.0757,-1.0176,-250.1374,-177.5954,-61.4198
0.5247,0.0283,-1.0085,-250.1374,-188.9847,-59.2824
0.5479,-0.0181,-0.9878,-250.1374,-201.3664,-55.4733
0.5703,-0.0657,-0.9753,-250.1374,-210.7252,-51.5725
0.5986,-0.1108,-0.9736,-250.1374,-217.313,-47.916
0.6155,-0.1265,-0.9717,-250.1374,-220.8168,-44.4275
0.6316,-0.1648,-0.9507,-250.1374,-222.6336,-40.4198
0.6614,-0.1777,-0.9233,-250.1374,-222.7252,-37.2214
0.6902,-0.1768,-0.8921,-250.1374,-220.9771,-34.145
0.7314,-0.1768,-0.8438,-250.1374,-217.4198,-31.0153
0.7612,-0.1777,-0.8047,-250.1374,-211.542,-28.3053
0.7751,-0.2014,-0.7649,-250.1374,-203.374,-26.0
0.8105,-0.2307,-0.7422,-250.1374,-192.9237,-23.4809
0.8279,-0.2756,-0.7085,-250.1374,-180.0229,-20.8092
0.8374,-0.2844,-0.7083,-250.1374,-164.6947,-17.7634
0.8489,-0.3123,-0.6746,-250.1374,-146.3053,-14.7405
0.8708,-0.3364,-0.6328,-250.1374,-126.2748,-10.7252
0.8757,-0.3513,-0.6069,-250.1374,-103.8244,-6.8244
0.8716,-0.3616,-0.5615,-250.1374,-78.7634,-3.1603
0.8604,-0.3745,-0.5115,-250.1374,-51.2748,0.9847
0.8401,-0.3843,-0.4561,-250.1374,-22.9008,4.5496
0.8069,-0.387,-0.3872,-250.1374,6.0763,7.9313
0.7825,-0.3958,-0.3523,-250.1374,34.9771,11.6031
0.7366,-0.4067,-0.2573,-250.1374,62.5573,14.5649
0.6753,-0.4072,-0.1738,-250.1374,90.2519,17.2366
0.6082,-0.4036,-0.0769,-250.1374,114.2214,19.7252
0.5291,-0.387,0.032,-250.1374,135.7023,21.9847
0.4441,-0.3733,0.1443,-250.1374,154.4657,23.6565
0.3647,-0.3599,0.2512,-250.1374,170.0,25.1069
0.2781,-0.3525,0.3601,-250.1374,182.229,26.8015
0.2029,-0.3513,0.4707,-250.1374,190.2443,28.1908
0.1633,-0.3538,0.5361,-250.1374,193.9237,29.7557
0.0928,-0.3599,0.6394,-250.1374,193.3435,31.0611
0.0464,-0.3779,0.7415,-250.1374,188.4504,32.0305
-0.0044,-0.3862,0.8267,-250.1374,179.9847,32.7939
-0.0408,-0.4004,0.9265,-250.1374,168.9008,33.2901
-0.061,-0.396,1.0166,-250.1374,154.0382,32.4122
-0.0818,-0.397,1.1118,-250.1374,136.9389,31.145
-0.0911,-0.4219,1.1877,-250.1374,118.2901,28.771
-0.0928,-0.436,1.2297,-250.1374,97.687,26.0916
-0.0925,-0.4819,1.3,-250.1374,74.3435,22.7481
-0.0896,-0.5107,1.3838,-250.1374,52.1679,19.687
-0.0923,-0.5186,1.4575,-250.1374,29.313,17.2824
-0.0681,-0.5149,1.5496,-250.1374,6.8626,14.5954
-0.0532,-0.5146,1.6345,-250.1374,-14.6489,13.1679
-0.0322,-0.5137,1.7117,-250.1374,-34.0992,12.2519
0.0088,-0.4961,1.7979,-250.1374,-51.5649,11.4122
0.0322,-0.5107,1.8823,-250.1374,-66.4198,11.0305
0.061,-0.5183,1.9104,-250.1374,-78.1985,10.8321
0.1155,-0.5398,1.9539,-250.1374,-85.8626,11.8779
0.1584,-0.5664,1.9999,-250.1374,-89.9008,12.8244
0.2024,-0.6118,1.9999,-250.1374,-91.7176,14.0763
0.2529,-0.6584,1.9999,-250.1374,-87.8702,16.3359
0.2947,-0.6948,1.9999,-250.1374,-82.8321,17.7786
0.3247,-0.7307,1.9999,-250.1374,-76.2366,19.2443
0.3628,-0.7371,1.9999,-250.1374,-66.5878,21.2672
0.3792,-0.7441,1.9999,-250.1374,-52.7786,24.0229
0.3923,-0.7327,1.9999,-250.1374,-37.1069,26.9008
0.3972,-0.7195,1.9999,-250.1374,-19.9695,30.2366
0.3926,-0.71,1.9999,-250.1374,-1.5115,33.6718
0.3821,-0.71,1.9999,-246.916,16.9008,37.3893
0.3552,-0.7114,1.9999,-228.145,34.5038,41.4198
0.303,-0.7,1.9999,-209.7099,50.4962,45.0
0.2573,-0.6968,1.9999,-191.1298,64.1069,48.2977
0.1968,-0.7017,1.9999,-173.0,75.5038,51.9237
0.1243,-0.7185,1.9999,-155.2137,84.0534,55.7634
0.0554,-0.7197,1.9999,-137.9542,89.229,59.458
-0.02,-0.7073,1.9999,-121.1145,91.1527,63.3053
-0.052,-0.7048,1.9999,-105.2061,90.1908,67.4733
-0.1245,-0.7034,1.9999,-89.4351,85.8168,71.7023
-0.1724,-0.7114,1.9999,-74.7863,79.687,76.0611
-0.2285,-0.7231,1.9999,-60.8473,70.8397,81.0382
-0.2605,-0.7429,1.9999,-47.5649,59.916,85.8015
-0.2837,-0.7534,1.9999,-34.5878,47.7481,90.7328
-0.2917,-0.7556,1.9999,-22.0534,34.0,95.2977
-0.2876,-0.7607,1.9999,-9.6489,19.1603,99.7481
-0.2861,-0.7678,1.9999,2.3664,4.0153,103.855
-0.2634,-0.7917,1.9999,14.2366,-11.2443,106.9618
-0.2273,-0.8162,1.9999,27.0076,-25.9847,110.3664
-0.1877,-0.8374,1.9999,39.0305,-38.3664,113.1221
-0.1443,-0.8445,1.9999,51.0687,-48.5344,115.5115
-0.0964,-0.855,1.9999,63.5649,-57.0153,117.6031
-0.0569,-0.8628,1.9999,76.0763,-63.6489,119.9695
-0.0188,-0.8821,1.9999,89.1145,-68.4427,121.7252
-0.0056,-0.8943,1.9999,101.7099,-72.0382,123.6336
0.0225,-0.917,1.9999,116.8092,-75.0763,125.9695
0.0356,-0.9495,1.9999,130.1985,-77.9084,128.0305
0.0649,-0.9724,1.9999,143.8702,-79.0458,131.0763
0.0813,-0.9868,1.9999,158.1908,-77.0687,134.5649
0.0999,-0.9985,1.9999,172.3206,-74.8244,138.458
0.1084,-1.0071,1.9999,186.0916,-72.5191,142.8244
0.1096,-1.022,1.9999,199.6565,-69.4809,147.2824
0.1116,-1.0349,1.9999,212.6641,-66.8397,151.6183
0.1084,-1.0427,1.9999,225.1832,-65.229,155.6565
0.1077,-1.0454,1.9999,236.9847,-64.1679,159.5343
0.0979,-1.0513,1.9999,248.2672,-63.7557,163.2061
0.0916,-1.051,1.9999,250.1298,-63.7939,167.458
0.0859,-1.0654,1.9999,250.1298,-64.2595,171.1221
0.0806,-1.0894,1.9999,250.1298,-64.8473,175.1069
0.0776,-1.1074,1.9999,250.1298,-65.458,179.0992
0.0706,-1.1216,1.9999,250.1298,-66.145,183.2672
0.0728,-1.1221,1.9999,250.1298,-66.9084,186.9771
0.0723,-1.1355,1.9999,250.1298,-67.0687,191.9313
0.0859,-1.1296,1.9999,250.1298,-66.8931,196.687
0.084,-1.1362,1.9999,250.1298,-66.2061,201.2977
0.0952,-1.1558,1.9995,250.1298,-65.9924,206.0
0.1118,-1.175,1.906,250.1298,-64.4733,210.9389
0.1355,-1.1975,1.8242,250.1298,-62.0992,215.9542
0.1641,-1.219,1.7378,250.1298,-59.5344,221.4504
0.1848,-1.2419,1.6711,250.1298,-57.145,226.6565
0.2205,-1.2598,1.5945,250.1298,-54.374,232.7634
0.252,-1.2776,1.5303,250.1298,-52.0763,237.5573
0.29,-1.3025,1.4595,250.1298,-50.3511,242.1756
0.3059,-1.3206,1.4192,250.1298,-48.9237,246.2595
0.3486,-1.3464,1.3396,250.1298,-47.6107,250.1298
0.3938,-1.3745,1.2595,250.1298,-47.1603,250.1298
0.4526,-1.4043,1.1643,250.1298,-46.771,250.1298
0.519,-1.4324,1.0735,250.1298,-46.7328,250.1298
0.5913,-1.4697,0.9656,250.1298,-46.5649,250.1298
0.6511,-1.5059,0.8413,250.1298,-46.4198,250.1298
0.7356,-1.5366,0.718,250.1298,-46.2519,250.1298
0.8103,-1.5737,0.592,250.1298,-45.6183,250.1298
0.8406,-1.5823,0.5269,250.1298,-44.5267,250.1298
0.9211,-1.6047,0.4031,250.1298,-43.2977,250.1298
0.9961,-1.6055,0.2732,250.1298,-41.3511,250.1298
1.0591,-1.6079,0.1599,250.1298,-38.8168,250.1298
1.1016,-1.6006,0.0251,250.1298,-36.4885,250.1298
1.1516,-1.5925,-0.0898,250.1298,-34.3435,250.1298
1.1909,-1.5776,-0.2017,250.1298,-32.6412,250.1298
1.2222,-1.5652,-0.3157,250.1298,-31.2366,250.1298
1.2336,-1.5598,-0.3928,250.1298,-30.3053,250.1298
1.2649,-1.552,-0.5017,250.1298,-29.1756,250.1298
1.2932,-1.5313,-0.6108,250.1298,-28.3359,250.1298
1.321,-1.511,-0.7073,250.1298,-26.8473,250.1298
1.3491,-1.4829,-0.8103,250.1298,-24.9008,250.1298
1.3743,-1.438,-0.8855,250.1298,-22.6489,250.1298
1.4011,-1.4053,-0.9514,250.1298,-20.2443,250.1298
1.4272,-1.3645,-1.01,250.1298,-17.1221,250.1298
1.4463,-1.3306,-1.0549,250.1298,-14.0611,250.1298
1.4595,-1.3154,-1.0764,250.1298,-11.5344,250.1298
1.4863,-1.2961,-1.1187,250.1298,-10.0382,250.1298
1.5134,-1.28,-1.1443,250.1298,-9.4885,250.1298
1.5503,-1.2612,-1.1741,250.1298,-9.5267,250.1298
1.5945,-1.228,-1.2156,250.1298,-9.6183,249.1908
1.6321,-1.2043,-1.2419,250.1298,-9.4275,246.8244
1.6772,-1.1917,-1.2744,250.1298,-9.1832,244.313
1.7268,-1.1768,-1.3022,250.1298,-9.9084,241.1603
1.7532,-1.1692,-1.3113,250.1298,-10.5496,237.9084
1.8037,-1.1709,-1.3555,250.1298,-12.2214,233.6412
1.8679,-1.1609,-1.4146,250.1298,-13.8473,229.5114
1.9304,-1.1516,-1.4758,250.1298,-15.2137,224.6412
1.9988,-1.1204,-1.5615,250.1298,-15.9542,219.4351
1.9999,-1.0857,-1.6436,250.1298,-15.7405,214.3588
1.9999,-1.0325,-1.7244,250.1298,-14.5573,207.9313
1.9999,-0.9878,-1.8118,250.1298,-12.5191,201.5267
1.9999,-0.9441,-1.9133,250.1298,-9.374,194.0229
1.9999,-0.9182,-1.949,250.1298,-5.5725,186.084
1.9999,-0.8677,-2.0,250.1298,-0.7863,178.0534
1.9999,-0.833,-2.0,250.1298,4.145,169.5878
1.9999,-0.7861,-2.0,250.1298,9.145,160.6031
1.9999,-0.7351,-2.0,250.1298,14.1756,152.1298
1.9999,-0.6943,-2.0,250.1298,18.9389,143.3435
1.9999,-0.6562,-2.0,250.1298,23.8092,134.4733
1.9999,-0.6201,-2.0,250.1298,28.9847,125.6183
1.9999,-0.5959,-2.0,250.1298,34.5115,116.8855
1.9999,-0.5774,-2.0,250.1298,38.3664,109.2901
1.9999,-0.5591,-2.0,250.1298,41.5115,102.4733
1.9999,-0.5669,-2.0,250.1298,44.4504,95.0
1.9999,-0.5781,-2.0,250.1298,45.7481,88.4657
1.9999,-0.5925,-2.0,250.1298,46.4962,82.8626
1.9999,-0.6023,-2.0,246.855,46.3359,77.4809
1.9999,-0.6213,-2.0,241.6641,45.4427,72.9924
1.9999,-0.6355,-1.988,237.3893,44.084,69.3664
1.9829,-0.6355,-1.9414,233.9847,41.9008,65.5496
1.957,-0.6438,-1.906,231.1603,40.0229,62.1603
1.9216,-0.6482,-1.8826,228.8473,38.1908,59.0611
1.9055,-0.6523,-1.8794,227.2366,36.3435,56.145
1.8828,-0.665,-1.8606,225.8931,35.1756,53.5191
1.8577,-0.6851,-1.8508,224.7481,34.2748,51.2519
1.8296,-0.6843,-1.844,224.6488,33.4733,49.3435
1.8103,-0.7,-1.8479,224.8397,32.9084,47.9695
1.783,-0.7136,-1.8701,225.3588,32.2137,46.3664
1.7578,-0.7239,-1.8982,226.6031,32.1756,45.7481
1.7349,-0.7244,-1.9241,228.2137,32.2595,45.7634
1.7222,-0.7209,-1.947,229.7634,33.0,45.7634
1.7097,-0.7122,-1.9905,231.1679,33.916,46.542
1.7034,-0.7073,-2.0,231.8855,35.0687,47.7252
1.6929,-0.6853,-2.0,232.5038,36.0763,48.8321
1.6843,-0.675,-2.0,231.8626,37.1985,49.9847
1.6914,-0.6672,-2.0,230.3664,38.0229,51.2366
1.697,-0.6543,-2.0,228.2061,38.8779,52.4504
1.7109,-0.6304,-2.0,224.9542,39.8779,53.458
1.72,-0.6211,-2.0,221.1832,40.7863,54.4351
1.738,-0.5955,-2.0,216.0305,41.8321,54.9618
1.7534,-0.5657,-2.0,210.3893,43.4351,55.4733
1.7688,-0.5439,-2.0,204.1679,45.1603,55.8473
1.7979,-0.5063,-2.0,197.0153,46.8473,56.0916
1.8279,-0.4924,-2.0,189.0611,48.1985,56.1832
1.853,-0.4883,-2.0,180.687,49.0076,55.8244
1.895,-0.4648,-2.0,171.2977,49.5496,55.6107
1.9292,-0.4512,-2.0,161.6412,49.1298,54.5725
1.9387,-0.4424,-2.0,150.9542,48.5649,53.0305
1.9778,-0.4131,-2.0,140.2748,48.3053,51.3359
1.9999,-0.396,-2.0,129.2977,47.4122,48.7023
1.9999,-0.3604,-2.0,117.3588,46.8626,45.1985
1.9999,-0.3342,-2.0,104.2901,46.5115,41.1832
1.9999,-0.3064,-2.0,90.6641,46.8397,37.084
1.9999,-0.3098,-2.0,77.0534,47.5802,31.7786
1.9999,-0.2917,-2.0,62.6641,48.5573,26.7252
1.9999,-0.2654,-2.0,47.7634,49.5344,21.1145
1.9999,-0.2559,-2.0,32.4198,50.5725,15.3664
1.9999,-0.2451,-2.0,17.1221,51.4962,9.4809
1.9999,-0.2429,-2.0,1.6183,52.2366,3.0382
1.9999,-0.2354,-2.0,-14.145,52.2595,-3.5191
1.9999,-0.2205,-2.0,-29.2595,51.4427,-9.7328
1.9999,-0.2031,-2.0,-44.771,50.7176,-15.7863
1.9999,-0.2073,-2.0,-60.2748,49.5954,-21.8931
1.9999,-0.2051,-2.0,-75.2672,48.374,-27.6565
1.9973,-0.2017,-2.0,-93.7023,47.7252,-34.3359
1.9602,-0.2136,-2.0,-107.9924,47.3359,-39.1527
1.906,-0.2139,-2.0,-121.9542,46.7557,-43.5725
1.8584,-0.2156,-2.0,-136.2061,46.3664,-47.9313
1.8337,-0.2197,-2.0,-147.8397,46.0534,-51.0992
1.7827,-0.2302,-2.0,-161.0916,45.6947,-54.6794
1.73,-0.2434,-2.0,-172.6183,44.7405,-57.4122
1.6812,-0.2678,-2.0,-183.7863,43.6412,-60.0687
1.6321,-0.2878,-2.0,-194.626,43.0611,-62.3435
1.5955,-0.304,-2.0,-205.1908,43.4733,-64.2748
1.5481,-0.3157,-2.0,-215.2061,44.3435,-65.2824
1.5078,-0.3345,-2.0,-225.2366,45.2672,-66.2443
1.4653,-0.3435,-2.0,-234.9847,46.3053,-67.2214
1.4521,-0.3486,-2.0,-244.5267,46.9084,-67.8168
1.4133,-0.364,-2.0,-250.1374,47.7099,-68.2214
1.3813,-0.394,-2.0,-250.1374,48.7634,-68.6565
1.3503,-0.4172,-2.0,-250.1374,50.1145,-69.1145
1.3137,-0.449,-2.0,-250.1374,51.4198,-69.0916
1.2854,-0.4629,-2.0,-250.1374,52.6183,-69.2672
1.2546,-0.4783,-1.9722,-250.1374,53.916,-69.3282
1.2224,-0.4849,-1.8928,-250.1374,55.1145,-68.9237
1.2126,-0.4919,-1.854,-250.1374,55.9237,-68.5496
1.1812,-0.5034,-1.7859,-250.1374,56.7405,-67.9847
1.1545,-0.5093,-1.7205,-250.1374,57.1756,-67.2748
1.1306,-0.5122,-1.6631,-250.1374,57.1985,-66.5573
1.0977,-0.5166,-1.5972,-250.1374,56.7023,-65.4122
1.0754,-0.5181,-1.5376,-250.1374,55.9924,-64.4885
1.0535,-0.5144,-1.4934,-250.1374,55.7176,-63.2061
1.0381,-0.5281,-1.4448,-250.1374,54.7405,-61.9542
1.0276,-0.5271,-1.4243,-250.1374,53.6718,-60.6183
1.0081,-0.5322,-1.3796,-250.1374,52.6489,-59.0382
0.9973,-0.5408,-1.3362,-250.1374,50.6947,-57.084
0.9834,-0.5439,-1.3115,-250.1374,48.7634,-55.2977
0.9697,-0.5486,-1.2681,-250.1374,47.0458,-53.6031
1.0049,-0.5457,-1.251,-250.1374,46.1603,-51.1374
0.9436,-0.583,-1.2034,-250.1374,45.6031,-49.4504
0.9336,-0.5891,-1.127,-250.1374,43.5191,-47.5344
0.9133,-0.5916,-1.0996,-250.1374,41.6107,-45.7328
0.8838,-0.5945,-1.0149,-250.1374,37.374,-44.8244
0.886,-0.5461,-0.9485,-250.1374,32.8397,-42.9389
0.8528,-0.5288,-0.8933,-250.1374,30.1832,-40.5115
0.8345,-0.5391,-0.8159,-250.1374,25.9237,-38.9695
0.8213,-0.5791,-0.7107,-250.1374,19.4504,-37.5725
0.8135,-0.6277,-0.5957,-250.1374,10.2748,-37.0763
0.8149,-0.6577,-0.4856,-250.1374,1.0076,-36.3969
0.7681,-0.6738,-0.3523,-250.1374,-10.7023,-36.5878
0.7793,-0.6729,-0.3118,-250.1374,-23.6489,-36.916
0.7935,-0.6584,-0.2485,-250.1374,-33.7634,-36.5725
0.7913,-0.6509,-0.1555,-250.1374,-42.3817,-36.0534
0.7788,-0.6611,-0.0295,-250.1374,-53.771,-36.084
0.7817,-0.666,0.0249,-250.1374,-64.3664,-35.6718
0.7856,-0.6841,0.1147,-250.1374,-73.8702,-34.7863
0.7854,-0.708,0.1973,-250.1374,-84.1069,-33.7405
0.8101,-0.7271,0.2551,-250.1374,-92.4657,-32.3206
0.8315,-0.7383,0.313,-250.1374,-96.7099,-29.8855
0.8662,-0.7397,0.3591,-250.1374,-96.8244,-27.4733
0.917,-0.741,0.4211,-250.1374,-96.7786,-25.4046
0.9531,-0.7363,0.4739,-250.1374,-90.5725,-23.1069
0.978,-0.749,0.5103,-250.1374,-81.6947,-20.9695
1.0095,-0.7561,0.5908,-250.1374,-69.8244,-19.4427
1.0452,-0.7766,0.6877,-250.1374,-56.9771,-17.9695
1.0811,-0.7922,0.7844,-250.1374,-42.3359,-16.6565
1.1055,-0.822,0.9133,-250.1374,-26.9008,-16.6641
1.1218,-0.8489,1.0261,-250.1374,-10.771,-16.5344
1.1257,-0.8787,1.1484,-250.1374,5.4885,-16.9771
1.1213,-0.9084,1.2952,-250.1374,21.313,-17.771
1.1089,-0.9338,1.4365,-250.1374,36.2824,-18.855
1.0942,-0.9404,1.5068,-250.1374,49.7252,-20.2366
1.061,-0.9648,1.6621,-250.1374,61.0992,-21.5114
1.0232,-0.9734,1.8203,-250.1374,69.6565,-22.8779
0.9807,-0.9697,1.9707,-250.1374,75.3435,-24.458
0.9192,-0.9688,1.9999,-250.1374,78.1145,-25.7786
0.8755,-0.9526,1.9999,-250.1374,78.7481,-26.374
0.8198,-0.9463,1.9999,-250.1374,77.3359,-26.8779
0.7568,-0.9285,1.9999,-250.1374,73.1756,-27.3893
0.7444,-0.9241,1.9999,-250.1374,67.8397,-27.458
0.6726,-0.9207,1.9999,-250.1374,60.4122,-27.4198
0.6218,-0.8933,1.9999,-250.1374,51.2595,-27.1985
0.5754,-0.8621,1.9999,-237.9542,42.0229,-26.2595
0.5366,-0.8108,1.9999,-221.2901,32.1374,-25.0153
0.4866,-0.7717,1.9999,-204.0916,21.2901,-22.9008
0.4468,-0.7397,1.9999,-187.1145,9.458,-21.0153
0.4197,-0.7144,1.9999,-170.1985,-2.3588,-18.5802
0.4009,-0.6978,1.9999,-153.4962,-13.7252,-15.229
0.3889,-0.6663,1.9999,-136.8015,-23.855,-11.3511
0.3789,-0.6372,1.9999,-119.2061,-33.1298,-6.7252
0.3726,-0.6138,1.9999,-103.3511,-41.0229,-1.8779
0.3589,-0.5872,1.9999,-87.8092,-47.8626,3.458
0.3562,-0.5591,1.9999,-72.9389,-54.3435,8.8779
0.3582,-0.5283,1.9999,-59.0076,-60.2214,15.0916
0.3662,-0.4963,1.9999,-45.8015,-65.7176,21.2748
0.3818,-0.4668,1.9999,-33.771,-70.3435,27.4886
0.395,-0.4492,1.9999,-22.3588,-74.4046,33.916
0.4375,-0.4292,1.9999,-11.1527,-77.542,40.5954
0.4744,-0.4141,1.9999,-0.9008,-80.2214,47.145
0.5281,-0.4143,1.958,8.9695,-82.9771,53.4733
0.6074,-0.4072,1.824,18.6336,-84.1985,59.8473
0.6938,-0.3955,1.6948,28.1679,-82.4198,66.3893
0.7725,-0.3977,1.5879,36.3511,-80.1527,71.7252
0.8716,-0.3865,1.467,44.1298,-76.4504,76.5038
0.9189,-0.3787,1.4185,50.626,-71.9771,80.0458
1.0176,-0.3718,1.3074,57.3969,-66.5649,82.7023
1.1152,-0.3613,1.1992,62.6794,-61.0916,84.3511
1.2151,-0.3533,1.0977,67.3053,-55.1374,85.1298
1.3052,-0.3374,1.0046,70.8855,-48.5038,85.1298
1.3965,-0.3206,0.9104,73.4122,-41.8397,84.0
1.4802,-0.3113,0.8389,74.6107,-35.6412,81.5496
1.5547,-0.2864,0.7778,74.8473,-30.145,78.0534
1.6116,-0.2737,0.7114,74.1756,-23.4809,72.7099
1.6716,-0.2571,0.666,72.4046,-19.2901,66.9847
1.7168,-0.2405,0.6355,70.0076,-16.1221,60.6565
1.749,-0.2168,0.5981,66.4351,-12.8626,51.8015
1.7603,-0.2085,0.5647,63.0763,-10.7176,43.1603
1.7756,-0.1992,0.5464,59.5115,-9.3206,35.1298
1.7761,-0.1836,0.5137,55.7328,-8.3969,27.0534
1.7651,-0.1804,0.5051,52.916,-7.1374,19.3206
1.7488,-0.1653,0.5027,49.6794,-6.4122,11.0458
1.7219,-0.1438,0.4727,47.3511,-5.8626,3.8244
1.688,-0.144,0.4687,45.0763,-5.1298,-2.4427
1.645,-0.1465,0.481,43.0458,-5.2824,-8.7252
1.5933,-0.1382,0.4817,41.5725,-5.9084,-14.3282
1.5439,-0.135,0.4722,40.6565,-5.8015,-19.1298
1.5012,-0.1248,0.4722,40.458,-5.0687,-23.1374
1.4495,-0.1084,0.4646,40.6489,-3.542,-25.8397
1.4182,-0.1113,0.4607,41.3435,-1.7939,-28.5114
1.3518,-0.1118,0.4817,42.9389,-1.626,-30.8168
1.2949,-0.1104,0.4985,44.8931,-2.0153,-32.9847
1.2351,-0.1069,0.479,47.2061,-1.1145,-34.1527
1.1953,-0.0942,0.4763,50.0763,1.2519,-33.855
1.1375,-0.0815,0.4475,53.7023,5.5115,-32.9771
1.0757,-0.073,0.4407,57.9771,8.542,-31.3435
1.0308,-0.0645,0.4373,62.9313,11.229,-29.4198
1.0054,-0.062,0.4321,68.145,13.6336,-26.7252
0.9514,-0.0586,0.4099,72.771,15.7176,-24.145
0.917,-0.0432,0.4021,76.7786,17.1832,-20.9771
0.8806,-0.0234,0.3782,80.374,17.7328,-18.3282
0.8477,-0.0024,0.3333,83.4504,17.8015,-15.8779
0.825,0.0332,0.3101,86.0305,17.0458,-12.9466
0.8054,0.0645,0.2688,87.8244,15.5725,-10.1527
0.7847,0.0781,0.2271,89.0611,13.7634,-7.3588
0.7786,0.0884,0.2043,89.4733,11.855,-5.1221
0.7732,0.116,0.1785,89.9618,8.5878,-1.9542
0.769,0.1299,0.125,89.6565,5.7481,1.0076
0.7717,0.1404,0.0696,88.7481,2.6183,3.6183
0.783,0.1609,0.0171,87.9466,-0.1603,6.3817
0.7913,0.1763,-0.0405,86.4657,-2.5344,9.1527
0.8022,0.1838,-0.0913,85.1298,-4.6718,11.7328
0.8267,0.1995,-0.1313,83.0458,-6.0382,14.3053
0.8369,0.2002,-0.1543,80.6489,-6.7557,16.2977
0.8606,0.2087,-0.1863,78.3359,-7.8397,18.2595
0.8906,0.2126,-0.2173,75.2672,-8.0076,19.8626
0.9058,0.2217,-0.2332,71.9542,-8.229,20.8397
0.9365,0.2241,-0.2493,68.9313,-8.2443,21.6947
0.9626,0.2349,-0.262,65.2672,-8.0076,21.5573
0.9875,0.2449,-0.2869,61.6183,-7.8244,21.8168
1.0117,0.2361,-0.2847,57.9924,-7.6107,21.4351
1.0313,0.2434,-0.2915,54.6641,-7.3588,20.4198
1.0439,0.2378,-0.3044,51.0305,-7.1527,19.2901
1.0649,0.2273,-0.2937,47.6565,-6.4656,18.1603
1.0891,0.2271,-0.2939,44.374,-6.3511,16.687
1.0945,0.2104,-0.2888,41.2519,-6.6336,14.8931
1.1045,0.2119,-0.2859,38.3664,-7.2748,13.0458
1.1204,0.2046,-0.2844,34.9924,-7.8473,11.0076
1.1262,0.1995,-0.2788,32.7939,-8.7481,9.0
1.1292,0.1941,-0.2639,30.5725,-9.0763,7.2672
1.1348,0.1836,-0.2739,28.8779,-9.5038,5.855
1.1326,0.1702,-0.2659,27.2595,-9.7023,4.1527
1.1458,0.1628,-0.2661,25.9924,-9.4198,2.7252
1.1382,0.1619,-0.2656,25.0229,-8.8015,1.2366
1.1387,0.1592,-0.2573,23.855,-7.5802,-0.1756
1.1375,0.1565,-0.2578,22.8779,-6.0458,-0.8015
1.1343,0.147,-0.251,22.2366,-4.7328,-2.1985
1.1274,0.1501,-0.2566,21.5802,-3.0382,-3.0076
1.1196,0.1421,-0.2466,20.8244,-1.4733,-3.313
1.1045,0.1343,-0.248,20.4351,0.4122,-3.5038
1.0935,0.1182,-0.2458,19.7863,2.3053,-3.6489
1.0818,0.1125,-0.2261,19.4122,4.2977,-3.4198
1.0681,0.1021,-0.2085,19.0076,5.8092,-2.771
1.0566,0.1082,-0.2031,18.8244,6.6565,-1.9924
1.0483,0.1016,-0.1895,19.0,7.4962,-0.9618
1.0386,0.1028,-0.1809,19.5267,7.7786,0.0763
1.0283,0.1067,-0.1677,19.6489,7.8321,1.0305
1.0273,0.1006,-0.1575,20.1145,8.4046,2.1908
1.0313,0.1108,-0.1555,20.7939,9.0458,3.1527
1.0383,0.0974,-0.1536,21.2595,10.0229,4.3435
1.0439,0.094,-0.1418,21.8321,10.8702,4.9924
1.0479,0.0898,-0.1411,22.5038,11.7863,6.0763
1.0474,0.0906,-0.1367,23.0458,12.8473,6.6565
1.0591,0.0811,-0.1318,23.5114,13.5649,7.4504
1.061,0.0852,-0.115,23.9618,13.7328,7.9466
1.0701,0.0774,-0.1045,24.1603,13.8244,8.0076
1.0701,0.0786,-0.1023,24.374,13.8015,8.1221
1.0811,0.0806,-0.0913,24.6183,13.6565,8.0611
1.0811,0.063,-0.0803,24.7481,12.9542,7.9237
1.0923,0.0544,-0.0696,24.9466,12.0229,7.458
1.0896,0.0664,-0.0676,25.0076,10.6489,6.8702
1.0986,0.0596,-0.0571,25.229,9.0763,5.8015
1.1011,0.0632,-0.0586,25.1603,7.4122,4.3282
1.1067,0.063,-0.0679,24.9389,5.9771,3.3817
1.116,0.0581,-0.0676,24.8473,4.5878,2.2061
1.1155,0.0571,-0.0693,24.4198,3.4046,1.1069
1.1121,0.0642,-0.0757,24.2901,1.9237,0.0
1.1099,0.0649,-0.0688,23.8855,0.2214,-1.1221
1.1025,0.0659,-0.0757,23.4656,-1.542,-2.2137
1.1079,0.0762,-0.0774,23.0534,-3.1985,-3.2366
1.1016,0.0676,-0.095,22.5496,-4.374,-4.1756
1.1021,0.0811,-0.1045,22.0076,-5.145,-4.6183
1.0981,0.0781,-0.1113,21.084,-5.8779,-5.229
1.0952,0.0801,-0.1145,20.6641,-6.1985,-5.7939
1.0903,0.0823,-0.1243,19.6107,-6.5115,-6.1298
1.0894,0.0916,-0.1252,18.6947,-6.4962,-6.2061
1.0837,0.085,-0.1262,18.1527,-6.3359,-6.6183
1.0808,0.0847,-0.1267,16.8855,-6.2061,-7.0153
1.0752,0.0828,-0.1243,16.0534,-6.2595,-6.8092
1.075,0.0891,-0.1162,15.0229,-6.1069,-6.5267
1.0635,0.0903,-0.1189,13.855,-5.8244,-6.2443
1.0613,0.0906,-0.1133,12.8931,-5.0,-5.5344
1.0645,0.085,-0.1187,11.9389,-3.8931,-4.8931
1.0608,0.0754,-0.1133,11.542,-2.3588,-3.5649
1.0637,0.0728,-0.0999,11.1221,-1.1221,-2.4351
1.0601,0.073,-0.1069,11.4351,0.2595,-1.4885
1.0576,0.0674,-0.0842,11.5878,2.1374,-0.5038
1.0588,0.0608,-0.0774,11.7023,3.687,0.5191
1.0696,0.0569,-0.0728,12.1756,5.0229,1.3893
1.0732,0.0554,-0.0562,12.8931,5.9695,2.1756
1.0669,0.0496,-0.051,13.542,6.8779,2.7557
1.074,0.0471,-0.0447,14.2137,7.542,3.1298
1.0886,0.0383,-0.0444,15.2061,8.3817,3.5267
1.1042,0.0371,-0.0396,15.5038,9.0534,4.0534
1.1028,0.0352,-0.0366,16.313,9.6794,4.1832
1.1162,0.0273,-0.033,16.9389,10.3893,4.1221
1.1218,0.0286,-0.0388,17.2061,10.8702,4.0534
1.1162,0.0269,-0.0374,17.4809,11.1145,3.9771
1.1306,0.0305,-0.0339,17.8168,10.9847,3.1832
1.1296,0.0256,-0.042,18.1832,10.9084,2.6107
1.1299,0.0261,-0.0435,18.687,10.5573,1.8397
1.1274,0.0264,-0.0239,18.458,10.0534,0.8931
1.1189,0.0276,-0.0396,18.6183,9.4733,0.2672
1.1157,0.0295,-0.0469,18.5191,8.4733,-0.5954
1.1094,0.0283,-0.0339,18.3053,7.6183,-1.2672
1.106,0.0369,-0.0413,18.0305,5.9313,-2.1679
1.083,0.0388,-0.0427,17.6031,4.2901,-2.5954
1.0715,0.041,-0.0369,17.4122,2.4504,-3.2901
1.0586,0.0427,-0.0388,16.8168,0.5725,-3.8244
1.0588,0.0483,-0.0583,16.3817,-1.2748,-3.8244
1.0403,0.0613,-0.0508,16.0,-2.6489,-3.7328
1.0254,0.0645,-0.0564,15.6412,-4.1145,-3.7405
1.0186,0.075,-0.0527,15.1756,-5.2977,-3.626
1.0107,0.0693,-0.0581,14.5878,-6.3435,-3.313
1.0063,0.0662,-0.0674,14.1298,-7.6718,-2.5725
1.0051,0.0686,-0.0732,13.5344,-8.3511,-2.1221
0.9971,0.0654,-0.0737,13.0458,-9.4427,-1.4427
0.9978,0.0669,-0.0647,12.7023,-10.4198,-0.6183
1.0012,0.0898,-0.0693,12.6718,-11.3053,0.229
1.0051,0.0867,-0.0725,12.6489,-12.0534,0.8779
1.0134,0.0815,-0.0789,12.374,-12.7405,1.6947
1.0117,0.0803,-0.0752,12.1985,-13.1756,2.6031
1.0242,0.0801,-0.092,12.374,-13.5267,3.3206
1.0327,0.0752,-0.084,12.7099,-13.6641,4.313
1.0413,0.0701,-0.0972,13.1756,-13.2061,4.8015
1.0591,0.0684,-0.0908,13.5191,-12.7405,5.2824
1.0767,0.0654,-0.1072,13.7634,-12.2061,5.7405
1.0984,0.0679,-0.124,14.145,-11.3511,6.4198
1.1128,0.0601,-0.1335,14.5496,-9.9008,6.4809
1.1279,0.0569,-0.1365,14.8702,-8.8244,6.7405
1.1445,0.0591,-0.1409,14.8779,-7.1985,6.7786
1.1563,0.0627,-0.1516,15.0076,-5.8015,6.7405
1.1755,0.0588,-0.1702,15.0687,-3.6412,6.5496
1.1958,0.0522,-0.1714,14.6641,-1.687,5.8473
1.2065,0.0513,-0.1792,14.3359,-0.0382,5.1908
1.2212,0.0596,-0.1953,13.9695,1.6412,4.1145
1.2185,0.0557,-0.1814,13.3282,3.6336,2.9847
1.2312,0.0505,-0.1802,12.8397,4.8702,1.7863
1.2354,0.0591,-0.1763,12.1832,6.4351,0.8244
1.2397,0.0613,-0.1848,11.5954,7.6489,-0.6641
1.2341,0.0557,-0.1887,10.9695,9.1603,-2.0534
1.2288,0.062,-0.1848,10.5038,10.1908,-3.0458
1.2229,0.0522,-0.1841,9.7023,11.313,-4.4275
1.207,0.0498,-0.1833,8.8397,11.9618,-5.7557
1.1929,0.0549,-0.1736,8.2443,12.1603,-6.8168
1.1743,0.0586,-0.1609,7.6641,12.1527,-8.1069
1.147,0.0674,-0.1558,7.0229,11.3817,-9.2366
1.1257,0.073,-0.1382,6.5267,10.229,-9.7863
1.1067,0.0667,-0.1323,6.0229,8.3893,-10.0229
1.0859,0.0586,-0.1409,5.229,7.4351,-10.5802
1.071,0.0728,-0.1406,4.5954,5.9847,-10.8397
