ax,ay,az,gx,gy,gz
1.196,0.4243,-0.6262,18.2214,-46.1603,-19.6336
1.2063,0.4233,-0.6541,17.0611,-45.6183,-21.1298
1.2261,0.427,-0.6719,15.8702,-44.7023,-22.7405
1.2261,0.4302,-0.6855,14.5344,-43.0687,-24.4809
1.2373,0.4333,-0.7083,13.1603,-40.7176,-25.5267
1.2534,0.4243,-0.7375,11.8855,-38.5038,-26.9008
1.269,0.4294,-0.7612,10.8092,-35.6489,-28.2214
1.2656,0.426,-0.7847,9.5802,-32.2672,-29.1679
1.2778,0.4333,-0.8064,8.6489,-28.5802,-30.145
1.281,0.4402,-0.8376,7.2748,-24.7023,-30.9847
1.2795,0.4375,-0.8555,6.3817,-20.9618,-31.9924
1.2813,0.4399,-0.8682,5.2748,-16.8931,-32.5573
1.2747,0.4446,-0.8809,3.855,-12.687,-33.5725
1.2817,0.4458,-0.8962,2.5954,-8.8473,-34.3511
1.2742,0.4478,-0.9167,1.0382,-5.1221,-34.8168
1.2646,0.4519,-0.9214,-1.0611,-1.1679,-35.8015
1.252,0.4519,-0.9373,-3.145,2.3206,-36.8397
1.2429,0.4604,-0.9458,-5.687,5.7023,-37.4122
1.2358,0.4646,-0.9551,-8.2672,8.7481,-38.4656
1.2188,0.4778,-0.9666,-11.0076,11.6336,-39.5115
1.2158,0.4756,-0.9697,-14.2748,13.6336,-40.6794
1.2004,0.4802,-0.9775,-17.7405,15.6107,-41.626
1.1843,0.4756,-0.9983,-21.4046,17.0305,-43.0076
1.1672,0.4849,-0.9966,-25.3206,18.2977,-44.4427
1.1448,0.489,-1.0073,-29.6947,19.5267,-45.4962
1.1196,0.4927,-1.0164,-34.4962,19.9695,-46.9389
1.105,0.4968,-1.0195,-39.687,20.5038,-48.3282
1.0896,0.4929,-1.0134,-44.7557,20.4427,-49.6794
1.0708,0.5039,-1.0144,-50.542,20.4122,-50.9466
1.0518,0.5061,-1.012,-56.0992,20.0687,-52.084
1.0457,0.5034,-1.0176,-61.4122,18.9847,-52.7099
1.0249,0.5115,-0.9937,-67.0611,17.9313,-53.7557
1.0039,0.5161,-0.9839,-72.7405,16.8244,-54.6107
0.9875,0.5225,-0.9658,-78.2366,15.6718,-55.4351
0.9683,0.5251,-0.9431,-83.1221,14.2977,-56.2061
0.9617,0.5337,-0.9309,-87.6794,12.3511,-57.0229
0.95,0.5242,-0.9448,-92.4275,9.4351,-57.4504
0.9463,0.5171,-0.9536,-96.3511,6.0382,-57.8092
0.9399,0.5095,-0.9707,-100.5573,2.5496,-58.4962
0.9399,0.4895,-0.9863,-105.1298,-1.2443,-58.8855
0.9492,0.4758,-1.0078,-109.4198,-5.1221,-59.5573
0.949,0.4731,-1.0322,-115.5954,-10.0076,-60.1908
0.9529,0.4675,-1.0564,-120.6031,-14.0687,-61.3511
0.9636,0.4756,-1.0818,-126.0153,-18.2443,-62.0229
0.9678,0.478,-1.104,-132.084,-21.8244,-63.8321
0.9746,0.4951,-1.1077,-138.4427,-25.7099,-65.145
0.9866,0.5076,-1.1072,-145.2214,-30.2672,-67.0229
0.9878,0.5117,-1.1194,-152.5496,-34.5191,-69.0534
0.9937,0.5347,-1.1194,-160.3206,-38.6336,-71.3664
1.0024,0.5393,-1.114,-168.4427,-43.1756,-73.855
1.0107,0.5537,-1.1052,-176.7786,-47.771,-76.1527
1.011,0.5664,-1.1011,-185.5649,-52.8015,-79.3053
1.0176,0.5774,-1.0759,-194.4351,-57.7328,-82.1832
1.0271,0.5793,-1.0654,-204.1603,-63.2061,-85.6412
1.0356,0.5833,-1.0596,-213.3282,-67.5649,-89.2901
1.0332,0.5706,-1.0286,-222.7863,-71.3206,-91.6031
1.0396,0.5608,-1.0225,-232.0,-74.626,-95.6412
1.0457,0.5532,-0.9968,-240.8626,-76.6412,-97.8168
1.0518,0.5386,-0.9873,-249.229,-77.9237,-101.9771
1.0593,0.5239,-0.949,-250.1374,-77.6565,-105.0229
1.0713,0.5129,-0.9292,-250.1374,-76.4427,-107.8321
1.0793,0.4927,-0.9102,-250.1374,-73.4046,-110.4962
1.0681,0.4841,-0.8738,-250.1374,-69.6489,-112.8702
1.0676,0.4563,-0.8416,-250.1374,-65.0763,-115.1908
1.0681,0.4402,-0.8079,-250.1374,-59.7634,-117.5267
1.0605,0.4194,-0.7588,-250.1374,-53.7176,-119.0458
1.0525,0.4048,-0.7341,-250.1374,-47.7786,-120.5725
1.042,0.3843,-0.6777,-250.1374,-40.2061,-121.9389
1.0193,0.3604,-0.6194,-250.1374,-32.9771,-123.0382
0.9902,0.3381,-0.5576,-250.1374,-25.7481,-123.9237
0.9607,0.3235,-0.4873,-250.1374,-18.8473,-124.4657
0.9319,0.2944,-0.4275,-250.1374,-11.7939,-124.855
0.8879,0.2871,-0.3591,-250.1374,-5.313,-124.7252
0.8533,0.2788,-0.293,-250.1374,0.4809,-124.7099
0.8293,0.2683,-0.2524,-250.1374,5.1221,-124.3206
0.791,0.262,-0.1921,-250.1374,9.5496,-123.5802
0.7439,0.2461,-0.1272,-250.1374,12.2977,-122.8168
0.709,0.2322,-0.0791,-250.1374,14.1756,-121.8855
0.6609,0.2312,-0.0122,-250.1374,15.5267,-120.5115
0.6221,0.2187,0.0261,-250.1374,16.0305,-119.3435
0.5947,0.2039,0.0674,-250.1374,16.4886,-118.0
0.5515,0.2002,0.0967,-250.1374,15.7023,-116.4733
0.5171,0.1907,0.1516,-250.1374,14.1985,-114.5649
0.5015,0.1865,0.1812,-250.1374,11.9313,-113.1985
0.469,0.1848,0.2285,-250.1374,8.4656,-111.8779
0.4375,0.1855,0.2849,-250.1374,4.2214,-109.8473
0.4033,0.1873,0.334,-250.1374,-0.7252,-108.5954
0.3892,0.1858,0.3914,-250.1374,-6.5267,-106.9542
0.3579,0.1868,0.4419,-250.1374,-12.8779,-105.1908
0.3528,0.1924,0.4827,-250.1374,-19.4809,-103.7557
0.3352,0.1943,0.5391,-250.1374,-26.9695,-102.0458
0.3276,0.1921,0.5547,-250.1374,-34.9618,-100.1527
0.3181,0.2031,0.5991,-250.1374,-43.458,-98.9313
0.3171,0.2024,0.6418,-250.1374,-52.0,-95.8015
0.3198,0.2,0.6821,-250.1374,-60.7939,-96.3053
0.325,0.2075,0.7158,-250.1374,-72.4122,-93.8244
0.3418,0.2256,0.7441,-250.1374,-81.6031,-92.6336
0.3669,0.2229,0.7588,-250.1374,-90.2748,-90.1145
0.385,0.2085,0.7703,-250.1374,-96.4885,-88.4351
0.4072,0.1895,0.79,-248.2137,-102.2595,-87.2748
0.4304,0.1733,0.8088,-244.7939,-107.0305,-85.542
0.4731,0.1707,0.8262,-241.1298,-111.1374,-84.2748
0.5037,0.1548,0.8481,-236.9771,-114.7939,-83.2214
0.5129,0.1462,0.8513,-232.7176,-117.542,-82.3817
0.553,0.1438,0.8582,-227.771,-118.0992,-81.3969
0.5796,0.1428,0.8645,-222.4198,-117.5191,-80.145
0.6169,0.1465,0.8574,-216.458,-114.3435,-79.1527
0.6504,0.1516,0.8599,-209.3053,-108.6412,-78.0763
0.6833,0.1545,0.863,-202.0458,-100.6031,-76.7405
0.7126,0.1655,0.8513,-194.8321,-90.2977,-75.4657
0.7344,0.1689,0.8354,-186.7939,-81.5954,-73.7405
0.7522,0.167,0.8198,-178.9542,-70.0916,-71.5267
0.7681,0.1694,0.8066,-169.7176,-56.6107,-69.0992
0.7708,0.1616,0.7996,-161.0229,-43.9618,-66.0916
0.7734,0.1582,0.7886,-152.0153,-31.3282,-62.9847
0.7544,0.1562,0.782,-143.5038,-18.7328,-59.6794
0.7336,0.1494,0.7886,-135.1374,-6.8473,-55.9771
0.7104,0.1467,0.7974,-127.1679,4.0382,-51.8397
0.6768,0.1448,0.8054,-119.3359,13.9084,-47.4122
0.6387,0.1458,0.8228,-112.2137,22.2901,-43.0611
0.6177,0.1448,0.825,-105.7863,29.1069,-37.8931
0.5872,0.1458,0.8552,-99.8779,34.1603,-33.0229
0.5476,0.1531,0.8801,-94.6489,38.1527,-27.8397
0.5122,0.1489,0.9114,-90.3511,41.0229,-22.4656
0.4824,0.1523,0.9324,-86.374,42.0,-17.4275
0.4583,0.1543,0.939,-82.9008,42.2443,-12.5573
0.428,0.1575,0.9514,-80.3206,41.5649,-7.6718
0.4133,0.1621,0.9556,-78.0611,40.0305,-3.3435
0.4099,0.1587,0.967,-75.5267,37.5878,0.5496
0.4021,0.1687,0.9927,-73.6183,34.4962,4.0763
0.4053,0.1689,1.0044,-71.5038,31.0382,7.2137
0.3877,0.157,1.0173,-70.2137,27.0076,9.626
0.3984,0.1477,1.0256,-68.3435,23.0382,11.9695
0.4038,0.1421,1.0166,-66.9771,19.3664,14.1374
0.4146,0.1226,1.0256,-65.2137,15.6107,15.6183
0.4253,0.1101,1.0286,-63.6336,12.1069,16.542
0.4307,0.0991,1.0232,-61.7099,8.4504,17.4351
0.4287,0.0945,1.0447,-59.3511,4.5115,17.9847
0.4451,0.0867,1.0544,-57.0305,0.7099,18.229
0.4565,0.0759,1.075,-54.5649,-2.6718,18.8168
0.46,0.0664,1.092,-51.6718,-6.1756,19.1832
0.4753,0.0527,1.0906,-48.6031,-9.2214,19.4504
0.488,0.0417,1.0925,-45.2137,-11.5038,19.9084
0.4968,0.0261,1.1082,-41.6641,-13.8321,20.7252
0.4988,0.0276,1.0996,-37.6947,-15.8321,21.0763
0.5007,0.0129,1.0913,-33.5191,-17.1832,21.4733
0.5151,-0.0044,1.1052,-29.4962,-18.4809,21.9389
0.5254,-0.012,1.1155,-24.4733,-19.3206,22.4122
0.5312,-0.0256,1.126,-19.8321,-20.0534,23.458
0.5364,-0.0286,1.1157,-14.3359,-20.4733,24.0229
0.5383,-0.0413,1.1238,-9.5191,-20.4351,24.8244
0.5388,-0.0498,1.1287,-4.6641,-20.4886,25.7634
0.5349,-0.0476,1.1338,0.229,-19.6565,26.6183
0.5303,-0.0469,1.1384,4.9313,-18.4656,27.9695
0.532,-0.0503,1.1482,9.9313,-17.145,29.5114
0.5208,-0.0469,1.1521,14.8092,-15.5878,31.2901
0.5195,-0.0356,1.1563,20.084,-13.9771,33.1298
0.509,-0.0378,1.167,25.2366,-12.5496,35.2519
0.4988,-0.031,1.1765,30.5114,-10.7786,37.8855
0.4802,-0.0437,1.1816,35.8779,-9.2061,40.6947
0.4636,-0.0452,1.1917,41.8931,-8.0076,43.3053
0.447,-0.0544,1.2021,47.4504,-7.2901,46.6031
0.4373,-0.054,1.2078,53.2061,-6.6947,49.855
0.4194,-0.0645,1.2131,59.0534,-6.6031,53.0458
0.3953,-0.0776,1.2122,65.0229,-6.4962,56.4809
0.3884,-0.0737,1.217,71.1527,-6.5038,60.3817
0.3723,-0.0828,1.2153,77.3664,-6.7939,63.8473
0.3555,-0.0999,1.2097,83.458,-7.2977,67.4885
0.3411,-0.1172,1.2048,89.6794,-8.4351,71.2595
0.3196,-0.1418,1.2043,96.2443,-9.6489,74.9771
0.3188,-0.1633,1.1904,102.916,-11.5038,78.855
0.3052,-0.1873,1.1765,109.626,-13.7252,82.4046
0.3101,-0.2056,1.1531,116.7481,-15.9084,86.4275
0.3108,-0.2119,1.1438,121.4885,-18.5114,89.8168
0.3167,-0.2217,1.1416,131.2137,-21.4962,94.2672
0.3257,-0.2212,1.1169,138.3664,-23.8626,97.8855
0.343,-0.2273,1.0908,145.7252,-26.2748,101.7405
0.3567,-0.23,1.0764,153.7481,-27.9771,105.2595
0.3843,-0.197,1.0396,161.1374,-29.2366,108.7557
0.4028,-0.1768,0.9802,169.4046,-28.0534,113.8626
0.436,-0.1768,0.9324,177.4504,-24.7786,119.6336
0.4458,-0.1787,0.8958,184.8168,-21.7863,125.3511
0.4683,-0.1956,0.8469,193.2519,-17.8473,131.8855
0.4902,-0.2334,0.8149,200.2824,-13.5802,137.145
0.4626,-0.2764,0.8003,207.4427,-11.1603,141.3664
0.4792,-0.3018,0.7866,214.4809,-9.9008,144.3969
0.4749,-0.3232,0.762,221.7099,-10.2977,145.9771
0.4846,-0.3354,0.7437,229.3206,-11.229,146.9466
0.5095,-0.3296,0.7083,237.1145,-11.2595,147.6183
0.5056,-0.3232,0.7063,244.4275,-11.5115,147.6412
0.5166,-0.322,0.7026,250.1298,-12.8168,147.2214
0.542,-0.3081,0.6614,250.1298,-13.4809,146.8779
0.5522,-0.2947,0.6379,250.1298,-13.9008,146.6412
0.5667,-0.2908,0.6089,250.1298,-14.7634,146.3282
0.5725,-0.2876,0.575,250.1298,-16.0534,146.7405
0.5864,-0.2837,0.5491,250.1298,-16.7634,147.4733
0.595,-0.2759,0.5088,250.1298,-17.0153,149.0916
0.5996,-0.2717,0.481,250.1298,-17.0153,151.4886
0.6016,-0.2617,0.4744,250.1298,-17.3053,154.4657
0.6016,-0.2542,0.4622,250.1298,-17.7863,157.3512
0.6035,-0.2522,0.4324,250.1298,-18.9847,161.0458
0.6108,-0.2427,0.407,250.1298,-20.3282,164.5114
0.6152,-0.2454,0.3835,250.1298,-21.3206,167.6794
0.6326,-0.2407,0.3472,250.1298,-22.7634,171.542
0.6594,-0.2351,0.3245,250.1298,-23.2214,175.0458
0.6704,-0.239,0.2886,250.1298,-23.4046,178.374
0.6936,-0.23,0.2556,250.1298,-23.8397,181.7481
0.7273,-0.2356,0.2124,250.1298,-23.626,185.0916
0.7615,-0.2295,0.1584,250.1298,-23.4962,188.542
0.8079,-0.2319,0.1111,250.1298,-22.5267,191.7481
0.8276,-0.2285,0.0833,250.1298,-22.1221,194.6031
0.8655,-0.2393,0.0344,250.1298,-21.4809,197.3512
0.9092,-0.2344,-0.0154,250.1298,-20.542,199.7939
0.9421,-0.2346,-0.0613,250.1298,-18.8244,201.9466
0.9878,-0.2495,-0.1113,250.1298,-16.5344,204.2137
1.0332,-0.2607,-0.1599,250.1298,-14.0534,206.1756
1.0779,-0.2659,-0.2183,250.1298,-11.4504,207.771
1.1208,-0.272,-0.2683,250.1298,-8.4962,209.229
1.1755,-0.2791,-0.3196,250.1298,-5.1832,210.5725
1.2061,-0.2805,-0.3599,250.1298,-1.6565,211.5114
1.2529,-0.2751,-0.4163,250.1298,2.2748,212.6794
1.2974,-0.2688,-0.4565,250.1298,6.3053,213.1374
1.3491,-0.2476,-0.5137,250.1298,10.5878,213.2519
1.3909,-0.2151,-0.5723,250.1298,15.0229,213.0916
1.4336,-0.1938,-0.6069,250.1298,19.7099,212.4504
1.4773,-0.1587,-0.658,250.1298,24.7939,211.2061
1.5186,-0.1279,-0.7031,250.1298,29.5038,210.1756
1.5566,-0.0894,-0.7327,250.1298,34.3053,208.8397
1.5679,-0.0891,-0.7615,250.1298,38.2977,207.0687
1.5879,-0.064,-0.769,250.1298,40.4733,204.8931
1.6169,-0.0466,-0.8098,250.1298,42.145,202.626
1.6409,-0.03,-0.8584,250.1298,46.3053,200.1908
1.6572,-0.0239,-0.9163,250.1298,51.0382,197.1374
1.6863,-0.0059,-0.9656,250.1298,56.5649,194.0
1.7036,0.0115,-0.9932,250.1298,61.8702,190.7405
1.7283,0.0271,-1.0039,250.1298,66.3053,187.1145
1.7327,0.0442,-1.0205,250.1298,69.7481,183.5191
1.7368,0.0671,-1.0342,250.1298,71.9466,179.5573
1.7517,0.074,-1.0547,250.1298,73.145,175.229
1.7556,0.0981,-1.0747,250.1298,73.4198,171.3512
1.7556,0.1133,-1.1079,250.1298,72.9847,167.0229
1.7585,0.1296,-1.1272,250.1298,71.9771,162.229
1.7681,0.1375,-1.1594,250.1298,70.1374,157.5343
1.7708,0.1465,-1.1936,250.1298,68.3282,152.7939
1.7729,0.1492,-1.2036,250.1298,66.1298,147.3893
1.7705,0.165,-1.2393,250.1298,63.7405,141.7557
1.78,0.1833,-1.2693,250.1298,61.5344,136.2977
1.7793,0.2017,-1.2964,245.1908,59.0763,130.4962
1.7839,0.2197,-1.3159,239.1908,56.229,124.9237
1.781,0.2483,-1.3535,232.3359,53.4275,119.0382
1.7737,0.2769,-1.3848,224.6794,49.8855,112.7786
1.7725,0.3052,-1.4009,217.3053,46.1832,106.771
1.7695,0.3118,-1.4036,210.1756,43.0305,101.6031
1.7654,0.3347,-1.4407,201.6641,39.1756,96.313
1.7688,0.3508,-1.4463,193.2977,35.7023,91.0763
1.7683,0.3669,-1.4626,184.855,31.9389,86.7252
1.7625,0.3853,-1.4883,176.5496,28.6489,82.4885
1.7666,0.3972,-1.5017,166.0076,24.7328,78.0229
1.7703,0.4148,-1.5134,157.6565,21.8168,74.855
1.7783,0.4336,-1.5391,149.5191,19.2061,71.8092
1.7874,0.4492,-1.5505,141.3588,17.374,69.2214
1.7991,0.4531,-1.5759,133.1679,16.1908,67.084
1.8044,0.4692,-1.604,125.0229,15.8244,65.0763
1.813,0.468,-1.6123,118.7634,16.4198,63.5496
1.8123,0.4709,-1.6299,111.1298,17.1527,61.8855
1.8291,0.4717,-1.6467,104.0382,18.7557,60.6718
1.8276,0.468,-1.6399,96.7786,20.7863,59.3053
1.8413,0.4646,-1.6509,90.2061,23.1756,57.8473
1.8401,0.4541,-1.6389,83.8092,26.0763,56.7863
1.8433,0.4497,-1.6479,77.5573,29.3053,55.458
1.8428,0.4319,-1.6287,71.8931,32.626,54.3817
1.8513,0.4255,-1.6221,66.2824,36.9542,53.3206
1.8501,0.4102,-1.6157,61.2672,40.9313,52.1298
1.8496,0.4036,-1.6167,56.6718,44.6718,51.0229
1.8469,0.394,-1.6045,52.4275,48.8015,49.8015
1.855,0.3853,-1.606,48.1603,53.5649,48.5649
1.8606,0.3862,-1.5874,44.3817,57.4198,47.0458
1.8569,0.3752,-1.5791,40.8779,61.4046,45.6031
1.8503,0.376,-1.5774,37.6183,65.1832,44.0611
1.8547,0.3713,-1.5708,34.3359,68.2595,42.4046
1.8594,0.3616,-1.5647,30.8473,70.9008,40.0992
1.8569,0.3562,-1.5649,27.9924,73.458,37.8702
1.8486,0.3584,-1.552,24.0611,75.6183,35.1145
1.8484,0.3479,-1.5537,20.2137,77.5649,32.1603
1.8337,0.3411,-1.5303,16.3282,78.5649,28.7557
1.8284,0.3411,-1.532,12.145,78.8931,24.855
1.8203,0.3364,-1.5288,7.313,78.7481,20.4886
1.793,0.3394,-1.5129,2.2595,77.8779,16.0687
1.7739,0.342,-1.5015,-3.0611,76.1298,11.313
1.7532,0.3342,-1.4915,-8.9237,74.0687,6.5191
1.7456,0.3406,-1.4709,-15.2519,71.0382,1.313
1.7158,0.3428,-1.4575,-21.771,67.8092,-3.6412
1.6968,0.3508,-1.4302,-28.5114,64.5038,-8.9542
1.6636,0.3496,-1.4158,-35.4198,60.6031,-13.9771
1.6318,0.3555,-1.3843,-42.3359,56.4427,-18.4656
1.5967,0.355,-1.3699,-49.3359,52.2824,-23.5496
1.5669,0.3569,-1.3386,-56.0687,47.8779,-28.2443
1.5273,0.3491,-1.3293,-63.084,43.1985,-32.0
1.5129,0.345,-1.311,-69.7405,38.229,-35.7099
1.4792,0.3425,-1.2976,-76.5115,33.145,-39.2214
1.4468,0.3274,-1.2791,-82.8855,28.4427,-42.2137
1.4119,0.3184,-1.252,-88.9466,23.4427,-44.7405
1.3894,0.3018,-1.2356,-94.8397,19.0382,-46.6641
1.3601,0.2883,-1.2246,-100.5115,14.6336,-48.3893
1.3269,0.2781,-1.2122,-105.8626,10.3511,-49.7481
1.3059,0.2695,-1.1917,-111.1832,6.6641,-50.6718
1.2959,0.2622,-1.1829,-115.8473,3.3282,-51.5344
1.2769,0.2551,-1.1763,-120.6412,0.2443,-51.6718
1.2549,0.2444,-1.166,-124.9695,-2.3053,-52.2137
1.2439,0.2363,-1.1392,-129.3969,-4.8397,-52.8244
1.2356,0.2192,-1.1335,-133.4886,-6.7634,-53.0153
1.2229,0.2134,-1.1035,-137.4275,-8.5878,-53.4656
1.2153,0.2007,-1.0847,-142.6031,-10.4809,-54.5038
1.1982,0.1953,-1.0789,-146.7863,-11.6641,-55.3511
1.1833,0.1948,-1.0654,-150.7328,-12.4733,-55.6794
1.1772,0.2002,-1.063,-154.1908,-12.5038,-56.1527
1.1589,0.1914,-1.0464,-157.6947,-12.5649,-56.2595
1.1394,0.1741,-1.0054,-161.0382,-13.4733,-56.2137
1.1404,0.1636,-0.9988,-163.9237,-14.5573,-56.8168
1.1189,0.1555,-0.9866,-167.2977,-15.3664,-56.9924
1.105,0.1331,-0.957,-170.2519,-15.6641,-57.1527
1.0955,0.1367,-0.9326,-173.3053,-15.916,-56.9389
1.0872,0.1155,-0.9236,-176.0534,-15.9084,-56.9618
1.0718,0.106,-0.8831,-178.6947,-15.5649,-56.6107
1.0552,0.1006,-0.8569,-181.1145,-15.1985,-56.9084
1.0366,0.0986,-0.8435,-183.5114,-14.3817,-56.9771
1.0164,0.0911,-0.8167,-185.9542,-13.1985,-56.8244
1.0054,0.0896,-0.8135,-187.7786,-11.6336,-56.6336
0.9883,0.0886,-0.7942,-190.3817,-9.9542,-56.6336
0.9644,0.0825,-0.7842,-192.4351,-7.9695,-56.0611
0.9485,0.0818,-0.7554,-194.5191,-5.9618,-55.2901
0.9233,0.0774,-0.7607,-196.7634,-3.9313,-54.3817
0.9072,0.0706,-0.7427,-198.9313,-1.5191,-53.7099
0.8806,0.073,-0.72,-201.0534,0.9847,-52.7023
0.8564,0.0708,-0.7019,-202.9771,3.5267,-51.771
0.8442,0.0808,-0.6941,-205.1832,5.9542,-50.6489
0.8162,0.0747,-0.6665,-207.4733,7.9313,-49.3893
0.7961,0.0779,-0.6445,-209.8397,9.3664,-47.9466
0.7651,0.0752,-0.6091,-212.0611,10.542,-46.7405
0.7422,0.082,-0.5693,-214.5343,11.3053,-45.1374
0.7185,0.0789,-0.5483,-217.1527,11.8473,-44.1985
0.6938,0.0691,-0.5059,-219.6488,12.1069,-43.0458
0.6636,0.0581,-0.47,-222.542,11.7481,-42.0534
0.6423,0.04,-0.4255,-225.2519,11.0229,-40.8397
0.623,0.0322,-0.4072,-227.9389,9.2977,-40.1603
0.5967,0.0059,-0.3655,-230.9847,7.2595,-38.9389
0.5742,-0.0068,-0.3223,-233.8015,4.7786,-37.7023
0.5547,-0.0181,-0.2715,-236.1832,1.6031,-37.0916
0.5388,-0.0376,-0.22,-238.5114,-1.8397,-36.0687
0.5298,-0.0415,-0.1775,-240.4504,-5.6183,-34.6489
0.5159,-0.0422,-0.1265,-241.9542,-9.6107,-33.2443
0.5105,-0.0505,-0.0706,-243.3969,-13.5344,-32.1756
0.5103,-0.051,-0.0437,-244.3664,-17.4427,-30.5267
0.5059,-0.0671,0.0046,-245.0992,-21.313,-29.145
0.5037,-0.0786,0.0432,-245.6412,-25.0992,-27.4886
0.5107,-0.0891,0.0913,-245.8855,-28.855,-26.0611
0.5237,-0.0857,0.1389,-245.6031,-32.2443,-24.5954
0.5349,-0.1021,0.1863,-245.1221,-35.3893,-22.8931
0.5508,-0.0937,0.2261,-244.0916,-38.0763,-21.2137
0.5627,-0.0867,0.2644,-243.1069,-40.0992,-19.1069
0.5706,-0.0811,0.2896,-241.7557,-41.6489,-17.2748
0.5913,-0.0764,0.3257,-239.9237,-42.687,-15.313
0.6045,-0.073,0.3792,-237.7099,-43.2519,-13.3588
0.6196,-0.0659,0.4143,-235.6947,-43.0229,-11.2595
0.6326,-0.0625,0.4558,-232.9542,-42.2443,-9.145
0.6482,-0.0637,0.5024,-230.1908,-41.7176,-7.2824
0.6597,-0.0605,0.5688,-226.6565,-40.9847,-4.6641
0.6721,-0.0608,0.6123,-223.4886,-40.3282,-2.9237
0.6875,-0.0632,0.6541,-220.1603,-39.7099,-1.0153
0.7,-0.0642,0.6963,-216.6412,-39.0076,1.1221
0.7146,-0.0637,0.7446,-212.7023,-38.4504,3.0076
0.7271,-0.0706,0.7886,-208.5343,-37.9924,4.8321
0.7354,-0.0737,0.7998,-204.4198,-37.6412,6.7176
0.749,-0.0735,0.8452,-199.5267,-36.6489,8.8626
0.7644,-0.075,0.8813,-194.7481,-35.9008,11.0305
0.7747,-0.0757,0.9141,-189.7023,-34.7405,12.7405
0.7886,-0.0803,0.9465,-184.7023,-33.3435,14.6336
0.8013,-0.0857,0.9792,-179.229,-32.145,16.4962
0.8149,-0.0991,0.991,-173.4657,-30.4809,18.1908
0.8303,-0.0977,1.0146,-167.8092,-29.1527,20.1679
0.8462,-0.106,1.0413,-161.6412,-27.4886,21.8015
0.8511,-0.1145,1.0562,-155.2214,-25.5573,23.9771
0.8618,-0.123,1.0681,-148.8626,-24.0534,25.687
0.8689,-0.1284,1.0994,-142.4275,-22.6641,27.3435
0.8779,-0.1335,1.1213,-135.2901,-21.4122,29.2443
0.8904,-0.1458,1.1438,-128.3893,-20.458,30.9466
0.8926,-0.1475,1.165,-121.313,-19.4427,32.7557
0.9043,-0.1499,1.1787,-113.8473,-19.145,34.313
0.9104,-0.1538,1.1904,-105.8473,-18.8626,36.1908
0.9148,-0.1592,1.1941,-98.8092,-18.9313,37.542
0.9319,-0.1624,1.2134,-90.3053,-19.2443,39.0534
0.9377,-0.1704,1.2109,-82.4885,-19.5114,40.2901
0.9478,-0.1873,1.2209,-74.5191,-19.9542,41.5496
0.9646,-0.1902,1.218,-66.084,-20.626,42.229
0.9773,-0.1858,1.2041,-57.1985,-21.1603,43.2977
0.991,-0.1919,1.1995,-48.6489,-21.6412,43.9084
1.009,-0.2009,1.1736,-39.9924,-21.6947,44.7863
1.0173,-0.1909,1.1575,-31.5802,-22.0305,45.1145
1.0342,-0.1904,1.1399,-22.0916,-22.2366,45.7252
1.052,-0.1882,1.1096,-13.145,-22.6718,45.8321
1.0637,-0.1841,1.0664,-4.5115,-22.855,45.5344
1.0828,-0.1802,1.0276,3.916,-23.0458,45.0611
1.1045,-0.1665,0.9861,11.6641,-23.3053,44.3664
1.1216,-0.1414,0.9421,18.7557,-23.4275,43.5954
1.136,-0.123,0.8997,25.2748,-23.5191,42.458
1.1445,-0.1074,0.8542,30.9313,-23.6718,40.8397
1.1587,-0.0903,0.8333,35.9389,-23.8397,39.6336
1.1709,-0.075,0.7744,40.1985,-23.855,38.2824
1.1863,-0.0537,0.7175,43.6947,-23.7023,36.6641
1.1987,-0.0247,0.6626,46.6641,-23.0382,35.4046
1.2161,-0.0081,0.606,48.8321,-22.8015,33.9924
1.2271,0.021,0.551,50.5573,-21.9389,32.1985
1.2361,0.0417,0.4819,51.5802,-20.8244,30.5038
1.2478,0.0649,0.4421,51.855,-19.458,29.2366
1.2573,0.072,0.408,51.7023,-18.3511,27.2137
1.2639,0.0916,0.3721,50.7939,-16.771,25.1679
1.2678,0.1228,0.3132,48.8931,-14.8473,22.626
1.2632,0.1365,0.2764,46.6031,-13.1145,20.1069
1.2561,0.1594,0.2502,43.9771,-12.3206,17.4504
1.2556,0.1704,0.2402,41.3664,-11.3817,15.1298
1.2412,0.1868,0.2197,37.4198,-11.1069,12.0
1.2358,0.1997,0.1958,33.4733,-11.7328,9.1985
1.2261,0.2031,0.1919,29.916,-12.7099,6.8244
1.2009,0.2065,0.1843,26.2901,-13.9466,4.6947
1.1919,0.2107,0.1772,22.6641,-15.5496,2.2748
1.1843,0.2197,0.1787,19.3435,-17.3588,0.4885
1.1746,0.2253,0.1736,16.1679,-18.9695,-1.1985
1.1536,0.2344,0.1584,13.6565,-20.7252,-2.8244
1.1482,0.2368,0.1838,11.2061,-22.4504,-3.8702
1.1345,0.2351,0.1694,9.9542,-23.8092,-4.7328
1.1335,0.2346,0.1699,8.8779,-24.9237,-5.5954
1.1223,0.2332,0.1653,8.1908,-25.3817,-5.8473
1.1086,0.2339,0.1621,8.2519,-25.6947,-6.3359
1.1084,0.2258,0.1538,8.3817,-25.8855,-6.5573
1.1067,0.2168,0.1509,8.9847,-25.6107,-6.6489
1.1108,0.2056,0.1323,10.0916,-25.1527,-6.229
1.103,0.2034,0.1255,11.4962,-24.1756,-5.9542
1.0974,0.1965,0.1211,13.1069,-22.687,-5.3359
1.0935,0.1968,0.1182,14.8855,-20.7939,-4.7557
1.0957,0.2007,0.1052,16.7328,-19.1069,-3.9313
1.0857,0.2212,0.1094,18.7939,-17.0229,-2.8626
1.0869,0.2139,0.1013,20.4351,-15.0076,-1.687
1.0823,0.2271,0.0906,22.6412,-13.374,-0.4733
1.0811,0.2358,0.0857,24.6489,-11.6183,0.8702
1.0725,0.2371,0.0715,25.8931,-9.6336,2.2443
1.0833,0.2412,0.0674,27.3817,-8.1374,3.4427
1.0703,0.2397,0.0527,28.7252,-6.5191,4.6565
1.0715,0.2444,0.0525,29.9237,-5.0153,6.1985
1.0779,0.2463,0.0352,30.4504,-3.4656,7.1374
1.0696,0.2505,0.0203,31.0916,-1.8855,7.7481
1.0796,0.2468,0.0254,31.4122,-0.771,8.916
1.0728,0.2581,0.0105,31.626,0.0763,9.687
1.0747,0.2527,0.0046,31.9466,0.9695,10.1069
1.0793,0.2458,-0.0015,31.9618,1.542,10.6947
1.0806,0.2466,-0.009,32.0153,1.7405,11.2137
1.0813,0.25,-0.0156,31.7939,1.9084,11.4885
1.0864,0.2412,-0.0249,31.6794,1.7863,11.5344
1.084,0.2432,-0.0386,31.4962,1.8244,11.4122
1.093,0.239,-0.0532,31.1603,1.3511,11.1069
1.0923,0.2361,-0.0583,30.542,1.1145,10.6794
1.1035,0.2312,-0.0613,30.1298,0.7863,10.2977
1.1035,0.2339,-0.0854,29.3435,0.3053,9.6947
1.0991,0.2251,-0.0864,28.229,-0.4198,8.8244
1.0984,0.2222,-0.0881,27.4046,-1.2519,7.9313
1.1042,0.2302,-0.0957,26.5038,-2.0534,7.1679
1.1091,0.2253,-0.1011,25.2901,-3.0916,6.2519
1.1123,0.2285,-0.1108,23.9389,-3.8855,5.2366
1.1167,0.2256,-0.1228,22.4351,-4.7252,3.7557
1.1169,0.2261,-0.1233,21.0382,-5.7481,2.9313
1.1194,0.2258,-0.1243,19.4504,-6.7557,1.8626
1.1177,0.23,-0.1245,17.7328,-7.9313,0.7023
1.1189,0.2266,-0.1287,15.9237,-9.1985,-0.4351
1.1238,0.2263,-0.1216,14.3969,-10.6565,-1.8626
1.1211,0.2139,-0.1187,12.313,-12.4504,-3.3817
1.1174,0.2144,-0.1113,9.9847,-14.374,-5.0305
1.1174,0.2092,-0.1218,8.4122,-16.0229,-6.8321
1.1243,0.2141,-0.1067,7.1679,-17.5191,-8.0763
1.1252,0.2173,-0.1101,5.542,-18.4733,-9.4351
1.1294,0.2153,-0.1016,4.1832,-19.3893,-10.9466
1.1274,0.2214,-0.1042,3.3053,-20.3053,-11.9542
1.1279,0.2146,-0.0991,2.4275,-20.8931,-12.7634
1.1328,0.2224,-0.0957,1.4275,-21.0534,-13.6565
1.1357,0.219,-0.0937,0.9008,-21.0305,-14.2061
1.127,0.2109,-0.0898,0.5038,-20.916,-14.7939
1.1304,0.2092,-0.095,0.084,-20.1374,-15.145
1.1292,0.2109,-0.0803,0.0687,-19.4275,-15.4198
1.1262,0.2146,-0.0674,0.3969,-18.3053,-15.5267
1.1252,0.2136,-0.0608,0.8321,-17.0153,-15.8473
1.1296,0.2146,-0.0625,1.3817,-15.2366,-15.6031
1.1257,0.2068,-0.0588,2.2214,-13.4656,-15.1374
1.1204,0.2126,-0.0583,3.084,-11.1221,-14.7939
1.1213,0.2019,-0.0566,4.2824,-8.9695,-14.0153
1.1069,0.1936,-0.0452,5.687,-6.5802,-13.2443
1.1089,0.1995,-0.0415,6.542,-4.6107,-12.3206
1.1006,0.1987,-0.0344,8.0153,-2.4046,-11.1908
1.0977,0.1929,-0.032,9.4427,-0.1756,-9.9771
1.0967,0.1855,-0.0193,10.8397,2.0458,-8.9389
1.0842,0.198,-0.0186,12.3664,3.9771,-7.7099
1.0737,0.1919,-0.0188,14.3435,5.5191,-6.3817
1.0691,0.1868,-0.0164,15.8397,6.626,-5.0763
1.0603,0.1882,-0.0127,17.2824,7.3282,-4.0534
1.0505,0.1819,-0.0034,19.0076,7.7328,-2.6107
1.0479,0.1819,-0.0054,20.4198,7.9084,-1.5191
1.0398,0.1873,-0.0081,21.8321,7.771,-0.8015
1.033,0.1892,-0.0166,22.9237,7.5191,-0.1069
1.0376,0.1826,-0.0273,23.7939,7.1603,0.3588
1.0381,0.1921,-0.0322,24.7328,6.6565,0.5802
1.0476,0.1919,-0.0457,25.5038,6.2366,0.6412
1.0391,0.1924,-0.053,26.1985,5.6183,1.1298
1.0413,0.1929,-0.0635,26.5114,4.6489,1.1756
1.0449,0.1882,-0.0598,26.5878,3.6183,1.0687
1.0481,0.1919,-0.0769,26.1908,2.3893,0.8702
1.0579,0.1987,-0.0869,26.0611,1.5344,0.8626
1.0637,0.2007,-0.0945,25.6489,0.7557,0.5496
1.0659,0.2065,-0.095,24.9237,-0.1527,0.2824
1.0784,0.2053,-0.1021,24.2061,-1.0763,-0.1069
1.0803,0.2051,-0.1172,23.1603,-1.542,-0.6718
1.0874,0.2134,-0.1208,22.2595,-2.4351,-1.5267
1.0955,0.2136,-0.1355,21.1527,-3.2137,-2.0153
1.1013,0.21,-0.124,19.8397,-4.4504,-2.9695
1.103,0.2107,-0.1313,18.5878,-5.2672,-4.0534
1.1091,0.2119,-0.1387,17.084,-6.5573,-5.1679
1.1084,0.209,-0.1401,15.5038,-7.7176,-6.5344
1.1074,0.2141,-0.1367,13.687,-8.7939,-7.9466
1.1074,0.2205,-0.1372,12.2672,-10.4122,-9.6031
1.1113,0.2141,-0.1331,10.5725,-11.7176,-10.7634
1.1052,0.2158,-0.1318,9.0229,-13.0,-12.3511
1.1052,0.2205,-0.1343,7.1527,-14.6641,-14.374
1.1052,0.2185,-0.127,5.5802,-15.7634,-15.5954
1.1069,0.2178,-0.1311,4.0534,-16.9695,-17.1832
1.1062,0.2134,-0.1296,2.9466,-17.855,-17.916
1.104,0.2092,-0.1357,1.8168,-18.2824,-18.9084
1.1011,0.2168,-0.1228,0.9466,-18.4351,-19.6183
1.1018,0.2131,-0.127,0.3817,-18.084,-20.1603
1.1021,0.2124,-0.1226,-0.2519,-17.3282,-20.229
1.1013,0.2146,-0.1204,-0.3969,-16.3053,-20.2748
1.0999,0.2148,-0.1226,-0.4809,-14.9466,-20.0534
1.0972,0.21,-0.1187,-0.5496,-13.0534,-19.5038
1.094,0.2061,-0.1199,-0.2901,-11.1908,-18.9695
1.0867,0.2061,-0.1067,0.1679,-9.2672,-18.1069
1.0906,0.2109,-0.0935,0.7405,-7.4046,-17.2977
1.0759,0.209,-0.0962,1.4809,-5.4504,-15.9008
1.0737,0.2048,-0.0955,2.1832,-3.9542,-14.9618
1.0662,0.2075,-0.0803,3.1603,-2.0229,-13.4427
1.0623,0.1973,-0.0872,3.8473,-0.7863,-12.2672
1.053,0.1904,-0.0757,4.8092,0.2977,-11.1527
1.0449,0.1907,-0.0688,5.8473,1.229,-10.2214
1.0332,0.1921,-0.0627,6.7023,1.542,-9.229
1.0276,0.189,-0.0654,7.6183,1.7405,-8.4046
1.0171,0.1887,-0.0532,8.3969,1.8092,-7.6565
1.0129,0.1885,-0.0488,9.2214,1.9924,-7.1985
1.0071,0.1865,-0.0608,9.916,1.5725,-6.7557
1.0071,0.1841,-0.0508,10.3282,0.9695,-6.2061
1.0059,0.1936,-0.0513,11.2595,0.8015,-5.6947
1.002,0.1892,-0.0457,11.916,-0.0153,-5.7634
1.0002,0.1846,-0.0461,12.3053,-0.7481,-5.4885
1.0007,0.1919,-0.0481,12.855,-1.6336,-5.4504
0.9963,0.1882,-0.0376,13.7023,-2.4885,-5.4962
0.9954,0.1926,-0.0364,13.9466,-3.2748,-5.4962
0.9983,0.1934,-0.0408,14.3817,-4.1908,-5.9542
1.001,0.2043,-0.0515,14.8397,-4.9695,-6.0763
1.0015,0.1921,-0.0449,15.0687,-5.4198,-6.3817
1.0007,0.2031,-0.0583,15.6641,-6.2366,-6.9008
0.9963,0.2004,-0.062,15.9389,-6.7786,-7.084
1.0039,0.1965,-0.0691,15.9237,-7.2137,-7.1679
0.9983,0.2073,-0.0767,16.3282,-7.5878,-7.7634
