ax,ay,az,gx,gy,gz
1.3411,0.1787,0.4558,27.6489,-9.8702,10.8855
1.3525,0.1743,0.4731,29.3664,-9.9542,10.8015
1.3689,0.1565,0.5039,31.1221,-10.4046,10.9542
1.3821,0.1548,0.502,32.5802,-10.8931,10.5344
1.3933,0.1479,0.532,34.626,-11.8168,9.8626
1.415,0.1409,0.551,36.4275,-12.9771,9.3282
1.4255,0.1353,0.5806,38.3893,-13.9313,8.4427
1.4377,0.1252,0.5908,40.5725,-15.0458,7.5725
1.4504,0.1179,0.6038,42.4427,-15.8397,6.771
1.4641,0.1042,0.6187,44.9847,-17.4046,5.6183
1.4648,0.0918,0.6272,47.2824,-18.8092,4.458
1.4778,0.0781,0.6262,49.6183,-20.0992,3.1527
1.4868,0.0576,0.6453,52.2748,-21.5878,2.0611
1.4978,0.0496,0.6553,54.9924,-23.0382,0.3511
1.5054,0.0386,0.6458,57.7634,-24.1145,-0.8855
1.5024,0.0249,0.6462,60.3893,-25.084,-2.0458
1.5129,0.0195,0.658,63.771,-26.3435,-3.8702
1.5142,-0.0007,0.6675,66.2214,-27.3282,-4.9771
1.5022,-0.0186,0.6599,69.1069,-28.3588,-5.8092
1.4956,-0.0305,0.6672,71.916,-30.0305,-7.1985
1.4946,-0.0427,0.6699,74.6412,-31.2748,-8.1527
1.4985,-0.0559,0.6836,77.7481,-33.0458,-8.9618
1.4807,-0.0645,0.6985,80.4809,-34.8244,-9.7099
1.4873,-0.0774,0.7026,82.9542,-36.8244,-10.687
1.4817,-0.0696,0.7151,86.1145,-39.2137,-11.3817
1.4783,-0.0852,0.7249,88.855,-41.4656,-12.0916
1.4792,-0.0862,0.7297,91.855,-43.5344,-12.5191
1.4795,-0.1055,0.7417,95.1069,-45.5496,-13.0916
1.4763,-0.1021,0.7402,98.542,-47.0611,-13.5802
1.4812,-0.1101,0.7356,101.9084,-47.8702,-13.5496
1.4905,-0.1143,0.7427,105.7481,-48.3588,-13.6412
1.4905,-0.1182,0.7319,109.8321,-48.3053,-14.145
1.4978,-0.1199,0.7302,114.1298,-47.6107,-14.3969
1.5107,-0.1279,0.7395,118.5115,-47.2595,-15.0076
1.5088,-0.1296,0.7427,122.5878,-46.7176,-15.6183
1.5186,-0.1294,0.7461,128.1221,-45.3664,-16.3359
1.5269,-0.1143,0.7322,132.9695,-42.7634,-17.1908
1.5159,-0.1201,0.7222,138.2519,-39.6718,-17.4198
1.5349,-0.1145,0.7078,143.5573,-36.0763,-18.0611
1.5417,-0.113,0.7043,148.5343,-31.8015,-18.2443
1.5479,-0.1165,0.676,153.0687,-27.5878,-18.5496
1.5405,-0.127,0.6711,157.8626,-23.313,-18.8779
1.53,-0.1262,0.6597,162.1145,-19.7481,-19.3435
1.5254,-0.1353,0.6697,166.5114,-16.8779,-19.8626
1.5208,-0.1418,0.6689,170.8397,-15.2214,-20.1756
1.5154,-0.1418,0.6753,174.7252,-13.8702,-20.4656
1.5076,-0.1506,0.6682,178.9237,-13.3893,-21.3282
1.5095,-0.1548,0.6697,182.855,-13.7252,-21.9389
1.5154,-0.1562,0.6418,186.4046,-13.7939,-22.6031
1.5281,-0.1643,0.604,190.3282,-13.6336,-23.4733
1.5242,-0.1843,0.606,194.0229,-14.8931,-24.2748
1.5239,-0.1936,0.5813,197.3588,-16.2595,-25.771
1.5408,-0.1995,0.5532,200.5954,-17.1985,-27.2595
1.5391,-0.2112,0.5364,203.4351,-19.5878,-29.542
1.5408,-0.2175,0.5239,206.0992,-22.7786,-31.8092
1.5479,-0.2192,0.4866,208.3512,-24.9618,-34.6794
1.5364,-0.2285,0.4641,209.855,-27.7099,-37.687
1.5444,-0.2268,0.4458,210.9618,-30.6641,-40.7557
1.5449,-0.229,0.4192,212.0916,-34.145,-44.3359
1.5464,-0.2249,0.386,212.5038,-37.3282,-47.5573
1.5342,-0.2275,0.3689,212.8702,-40.5725,-51.0382
1.5183,-0.23,0.3501,212.7939,-43.9084,-54.3893
1.5112,-0.2239,0.3147,212.7557,-46.6031,-57.7863
1.4861,-0.2332,0.3042,212.5649,-49.7405,-60.6794
1.4758,-0.2375,0.2808,212.4275,-53.8779,-63.6641
1.4614,-0.2429,0.2544,212.7786,-56.7634,-66.3969
1.4434,-0.2417,0.2546,212.8168,-60.3588,-69.5496
1.4333,-0.2397,0.2141,212.8321,-62.5496,-72.2748
1.4253,-0.2507,0.2002,213.3206,-64.8779,-75.2443
1.4143,-0.2644,0.188,213.9542,-68.4427,-78.7328
1.3787,-0.2759,0.179,214.916,-72.3969,-83.2214
1.374,-0.2717,0.1663,215.9084,-76.5954,-87.8244
1.353,-0.2703,0.1438,216.9237,-80.1221,-91.2824
1.3372,-0.2661,0.1111,218.0534,-82.2901,-95.6794
1.3159,-0.2332,0.106,219.1069,-83.6794,-97.3664
1.2732,-0.23,0.0461,220.3282,-82.3893,-101.626
1.2505,-0.2405,-0.0027,221.4046,-79.9771,-103.9008
1.2097,-0.2356,-0.0471,221.9313,-76.4657,-104.7328
1.1775,-0.2209,-0.1113,222.6031,-71.1527,-104.6489
1.188,-0.2095,-0.1841,222.8779,-65.9313,-103.8168
1.1414,-0.1943,-0.2058,223.6947,-60.687,-102.3511
1.1057,-0.1921,-0.2332,224.313,-56.8015,-100.7099
1.0645,-0.1897,-0.2615,224.5802,-53.3359,-98.687
1.0254,-0.1907,-0.2739,225.0916,-50.4046,-95.2519
0.9956,-0.199,-0.3083,225.1221,-47.4046,-92.3893
0.9741,-0.199,-0.3303,224.9695,-44.5496,-91.8244
0.9539,-0.1917,-0.3516,225.145,-41.6489,-87.9008
0.9568,-0.1875,-0.3835,224.7099,-38.9771,-84.9389
0.9521,-0.1721,-0.3977,224.687,-36.2901,-82.5802
0.9504,-0.1631,-0.395,224.7405,-34.8473,-80.0
0.9355,-0.1638,-0.394,224.5725,-34.1145,-78.0687
0.9329,-0.1677,-0.3965,224.4809,-35.2214,-76.8244
0.9326,-0.1912,-0.3948,224.8244,-38.0382,-76.3511
0.9509,-0.2075,-0.4089,225.1374,-42.2901,-76.6489
0.9709,-0.2036,-0.4175,225.1527,-47.7099,-77.7099
0.9141,-0.2292,-0.3928,225.687,-52.9695,-78.9924
0.9319,-0.2339,-0.3396,226.2901,-60.3206,-81.1145
0.9351,-0.2319,-0.3633,226.7405,-67.5191,-83.6947
0.9507,-0.2273,-0.4055,227.2824,-74.1069,-86.7939
0.9639,-0.1978,-0.4155,227.3206,-81.1756,-89.4427
0.9612,-0.1675,-0.4861,226.6947,-85.8779,-92.4809
0.9919,-0.1289,-0.627,225.1298,-82.626,-91.8473
0.9934,-0.1162,-0.7324,223.145,-73.8626,-88.8473
0.9707,-0.1274,-0.7876,220.5573,-64.0611,-85.9695
0.9272,-0.1433,-0.7358,217.8855,-57.1527,-81.9847
0.8989,-0.1606,-0.7542,215.0763,-52.9237,-78.5343
0.8904,-0.1807,-0.7722,212.5496,-52.3053,-76.0763
0.8999,-0.1809,-0.7844,210.1145,-53.4656,-73.9542
0.9207,-0.1699,-0.8235,207.7557,-53.9924,-72.6412
0.9514,-0.1646,-0.8613,205.3435,-53.2977,-71.7023
0.9734,-0.158,-0.8911,202.5725,-51.145,-71.4657
1.009,-0.1602,-0.9441,199.9542,-46.5649,-71.6641
1.0305,-0.1582,-0.9524,197.4809,-41.7405,-72.626
1.0361,-0.1511,-0.9534,194.9313,-37.8626,-74.5802
1.0339,-0.1736,-0.9424,192.7557,-35.4962,-77.0153
1.0232,-0.188,-0.9224,190.2901,-35.2748,-80.5573
1.0076,-0.1902,-0.8896,188.4733,-37.0305,-84.2443
0.9902,-0.199,-0.8953,185.8702,-39.458,-87.9847
0.9766,-0.1985,-0.9138,183.2595,-42.3206,-92.084
0.9548,-0.2048,-0.9307,180.2443,-44.6336,-93.1756
0.9355,-0.2068,-0.9495,177.3664,-46.4351,-95.5802
0.9092,-0.2104,-0.9739,174.1756,-47.8168,-98.9542
0.8816,-0.2163,-0.9893,170.9695,-49.6031,-99.2595
0.8435,-0.2141,-1.0024,167.687,-51.4962,-100.7863
0.8235,-0.2175,-0.9836,164.8397,-53.4962,-101.2214
0.7913,-0.2263,-0.9866,162.1145,-56.2366,-101.9618
0.7534,-0.2522,-0.9775,159.4427,-59.145,-102.1603
0.7295,-0.2527,-0.9895,156.3435,-62.3435,-102.1985
0.7119,-0.2456,-1.012,154.2748,-64.5573,-102.0458
0.6975,-0.2468,-1.0332,152.2748,-66.5496,-101.2214
0.6851,-0.2573,-1.0356,150.8931,-68.0305,-100.0305
0.6687,-0.2734,-1.0457,149.0076,-68.458,-98.0229
0.6506,-0.2812,-1.0693,147.7557,-68.7176,-96.916
0.6357,-0.2883,-1.0684,146.7634,-69.4504,-94.0458
0.6213,-0.2812,-1.0723,146.313,-70.0229,-92.8779
0.6267,-0.2859,-1.0881,146.0382,-70.1832,-92.3206
0.6165,-0.2896,-1.0957,145.9695,-70.3359,-91.6718
0.6045,-0.292,-1.1211,146.2443,-69.7252,-87.8321
0.5984,-0.3096,-1.136,146.4122,-68.9389,-86.0382
0.6057,-0.3198,-1.176,146.5802,-67.5496,-83.5954
0.6035,-0.3159,-1.2002,146.2901,-65.3282,-80.9237
0.6069,-0.3123,-1.2329,146.4351,-62.8626,-78.6794
0.613,-0.3008,-1.2632,146.0305,-60.229,-76.2061
0.6091,-0.304,-1.3018,145.6794,-56.6947,-73.8321
0.615,-0.3027,-1.3162,145.0076,-53.084,-71.6947
0.6174,-0.2979,-1.3459,144.3893,-49.2137,-69.6718
0.6184,-0.2842,-1.3962,143.5343,-45.2672,-67.5725
0.613,-0.2747,-1.4277,142.3206,-41.145,-65.2595
0.6177,-0.2625,-1.4727,141.1145,-36.3969,-63.4122
0.6145,-0.252,-1.5093,139.4427,-32.1832,-61.1908
0.625,-0.2478,-1.5415,137.229,-28.1221,-59.0076
0.6292,-0.2444,-1.5679,134.8855,-24.2977,-57.2061
0.6316,-0.2424,-1.5881,132.3359,-22.0229,-55.6336
0.6274,-0.2244,-1.6003,128.4657,-20.7634,-54.6794
0.625,-0.2246,-1.6094,124.2443,-20.7099,-54.2824
0.6338,-0.2,-1.6238,121.6565,-21.0458,-54.1069
0.6396,-0.1814,-1.6541,117.4809,-21.3511,-54.2214
0.6484,-0.1587,-1.7051,110.5115,-21.0305,-54.3969
0.6448,-0.135,-1.7466,105.2672,-19.3511,-54.5191
0.6453,-0.1252,-1.7798,99.1908,-16.5191,-54.1145
0.6416,-0.1147,-1.8103,92.6107,-13.4122,-53.3664
0.6172,-0.1162,-1.8169,85.1603,-11.1221,-53.1221
0.6055,-0.1104,-1.8408,78.2901,-9.542,-52.7939
0.5898,-0.1047,-1.8513,70.916,-8.2214,-52.3282
0.5835,-0.0894,-1.8494,63.3435,-7.3359,-52.1908
0.5667,-0.072,-1.8672,56.0382,-6.5573,-52.0305
0.5483,-0.0688,-1.8721,48.6641,-6.7786,-51.3817
0.5298,-0.0703,-1.8799,41.3282,-6.458,-51.3053
0.5117,-0.0728,-1.8933,33.7634,-5.8779,-50.458
0.5027,-0.0657,-1.8914,26.1756,-4.8702,-49.6718
0.4824,-0.0754,-1.8982,18.313,-4.374,-48.687
0.4692,-0.071,-1.8867,10.5878,-4.0763,-47.6718
0.4602,-0.072,-1.8875,3.1603,-4.4198,-46.0
0.4412,-0.0852,-1.8638,-4.9237,-5.1603,-44.4656
0.4343,-0.1011,-1.8523,-12.4275,-6.771,-42.7023
0.4092,-0.1111,-1.8386,-19.9542,-8.6947,-40.7786
0.406,-0.1226,-1.8203,-27.1069,-11.374,-38.5496
0.3989,-0.1255,-1.8181,-34.4809,-13.7252,-36.6183
0.3931,-0.137,-1.8218,-41.2061,-15.9924,-34.0305
0.395,-0.1475,-1.8132,-48.9237,-18.5573,-30.9008
0.3967,-0.1646,-1.8069,-55.7176,-21.145,-28.0611
0.4001,-0.1721,-1.7947,-62.4504,-23.145,-25.0992
0.4016,-0.1909,-1.7905,-69.0534,-25.6031,-21.9084
0.4043,-0.2019,-1.7817,-75.5115,-28.4275,-19.374
0.4175,-0.21,-1.7627,-82.7328,-32.8244,-16.1985
0.4351,-0.2249,-1.751,-89.3664,-37.4885,-12.916
0.4465,-0.2295,-1.7324,-95.0992,-42.4504,-10.8397
0.4543,-0.2314,-1.7344,-100.3817,-47.084,-8.8779
0.4788,-0.2437,-1.7285,-106.084,-52.4351,-6.4046
0.501,-0.2529,-1.7185,-111.3053,-57.5191,-4.7634
0.5273,-0.2559,-1.7219,-116.5954,-62.8779,-2.7634
0.5601,-0.2588,-1.7271,-121.771,-67.6412,-1.7023
0.5833,-0.2532,-1.7261,-126.4427,-72.3893,-0.5115
0.6082,-0.251,-1.73,-131.3359,-76.8092,0.4427
0.6426,-0.2571,-1.7292,-136.4046,-81.145,1.2137
0.6702,-0.2668,-1.7446,-141.2595,-85.3588,1.6412
0.6816,-0.2637,-1.7542,-146.1374,-89.8168,2.2824
0.71,-0.2634,-1.7598,-151.5267,-92.3053,2.6565
0.7285,-0.2454,-1.7703,-156.458,-95.687,3.3511
0.7593,-0.2454,-1.7874,-161.5954,-96.4885,3.6947
0.7886,-0.2383,-1.8066,-166.771,-100.1832,4.313
0.822,-0.2366,-1.8296,-172.2519,-100.9313,4.8702
0.856,-0.2283,-1.8445,-177.8702,-101.4657,5.4046
0.8828,-0.2197,-1.8748,-183.4733,-101.7634,5.8321
0.9065,-0.2185,-1.8726,-189.6947,-100.6718,6.7099
0.9473,-0.2222,-1.9019,-195.8702,-97.8931,7.1145
0.9822,-0.2156,-1.9268,-202.2595,-96.3588,7.2443
1.0291,-0.2102,-1.9512,-209.0534,-91.8626,7.1069
1.0669,-0.2043,-1.9736,-215.6183,-86.687,6.855
1.1028,-0.1992,-1.9802,-223.2901,-79.4885,6.1145
1.1306,-0.1985,-1.9771,-230.5954,-72.6565,4.9008
1.1594,-0.1885,-1.9836,-237.8092,-65.0992,3.6565
1.1858,-0.1868,-1.9819,-245.7481,-57.6489,1.6107
1.197,-0.1772,-1.9656,-250.1374,-50.4046,-0.3206
1.2173,-0.178,-1.9575,-250.1374,-43.1374,-2.7557
1.2329,-0.1775,-1.9441,-250.1374,-36.0,-5.5878
1.2385,-0.178,-1.9307,-250.1374,-29.1374,-8.4656
1.239,-0.1807,-1.9048,-250.1374,-22.9084,-11.4885
1.2385,-0.1758,-1.8806,-250.1374,-17.1985,-14.5649
1.2346,-0.1833,-1.8552,-250.1374,-11.771,-17.8931
1.2151,-0.1826,-1.8379,-250.1374,-6.7328,-21.313
1.2114,-0.1831,-1.8308,-250.1374,-2.5802,-24.2061
1.1929,-0.2065,-1.7935,-250.1374,2.1756,-27.687
1.1646,-0.2231,-1.7827,-250.1374,5.9008,-30.8092
1.1382,-0.2463,-1.75,-250.1374,9.2519,-33.9389
1.1021,-0.2708,-1.7112,-250.1374,12.0076,-36.6031
1.0596,-0.2939,-1.6621,-250.1374,13.8779,-39.0611
1.0151,-0.3091,-1.5969,-250.1374,14.8397,-41.0611
0.9761,-0.3213,-1.5347,-250.1374,14.7557,-42.8626
0.946,-0.3254,-1.5005,-250.1374,13.5725,-44.0763
0.9089,-0.3254,-1.4214,-250.1374,10.4885,-45.1908
0.866,-0.3289,-1.335,-250.1374,6.7557,-45.5573
0.8291,-0.3318,-1.2549,-250.1374,2.5344,-46.1374
0.7974,-0.3408,-1.1755,-250.1374,-3.1298,-46.0
0.7612,-0.363,-1.1099,-250.1374,-8.687,-45.6183
0.7351,-0.385,-1.0447,-250.1374,-14.8626,-45.0916
0.7117,-0.4133,-0.9739,-250.1374,-20.771,-44.1145
0.6897,-0.4314,-0.9131,-250.1374,-26.9389,-42.5954
0.6785,-0.4355,-0.8469,-250.1374,-33.2137,-40.7939
0.6604,-0.436,-0.8066,-250.1374,-39.0611,-38.6183
0.6626,-0.4314,-0.741,-250.1374,-44.8855,-36.2061
0.6631,-0.4211,-0.6938,-250.1374,-50.4504,-33.9466
0.6528,-0.4282,-0.666,-250.1374,-55.9618,-31.5802
0.6567,-0.4355,-0.6245,-250.1374,-60.7863,-28.916
0.6584,-0.4475,-0.5957,-250.1374,-65.1145,-26.3435
0.6648,-0.4668,-0.5479,-250.1374,-68.855,-23.7023
0.6768,-0.4741,-0.509,-250.1374,-72.2977,-20.9847
0.6929,-0.4666,-0.4758,-250.1374,-75.2748,-18.4427
0.709,-0.4558,-0.4426,-250.1374,-77.9008,-15.8168
0.7292,-0.4521,-0.395,-250.1374,-80.2672,-13.0076
0.7437,-0.4434,-0.3765,-250.1374,-82.5115,-10.7786
0.7771,-0.4399,-0.344,-250.1374,-84.2443,-8.7328
0.8008,-0.4392,-0.3115,-250.1374,-85.2366,-7.0916
0.8276,-0.4395,-0.2939,-250.1374,-85.4351,-5.771
0.8638,-0.4421,-0.2717,-250.1374,-84.7557,-4.7176
0.8948,-0.4521,-0.2405,-250.1374,-83.3969,-4.3588
0.9219,-0.4602,-0.2141,-250.1374,-81.1298,-4.2748
0.9541,-0.4695,-0.1838,-250.1374,-78.3282,-4.5725
0.9607,-0.4736,-0.1609,-250.1374,-74.7405,-5.3206
0.9822,-0.4695,-0.113,-250.1374,-70.6183,-6.626
1.0027,-0.47,-0.0654,-250.1374,-67.0229,-8.145
1.012,-0.4534,0.0017,-250.1374,-63.5649,-9.9313
1.0276,-0.4478,0.0544,-250.1374,-60.4885,-11.7328
1.0371,-0.4387,0.1292,-250.1374,-57.7405,-13.916
1.0435,-0.4429,0.1814,-250.1374,-55.3969,-16.1069
1.0549,-0.4563,0.2358,-250.1374,-53.1679,-18.1756
1.0706,-0.4666,0.2834,-250.1374,-50.916,-20.0992
1.0759,-0.4697,0.2996,-250.1374,-48.3511,-22.5573
1.0781,-0.4885,0.3428,-250.1374,-45.0611,-25.0076
1.0828,-0.5193,0.3945,-250.1374,-41.3588,-27.0763
1.0913,-0.5374,0.4451,-250.1374,-37.5878,-29.6718
1.0854,-0.5544,0.488,-250.1374,-33.3817,-32.0458
1.0938,-0.564,0.5679,-250.1374,-28.7252,-33.8321
1.0815,-0.5591,0.6392,-250.1374,-23.8168,-35.8244
1.0742,-0.5542,0.7056,-250.1374,-18.1298,-37.4504
1.0667,-0.5542,0.7461,-250.1374,-12.7786,-38.7481
1.062,-0.5515,0.825,-250.1374,-5.8015,-40.0229
1.0474,-0.5579,0.9219,-250.1374,1.8855,-40.6489
1.0303,-0.5657,1.0178,-250.1374,9.7328,-41.0611
1.0203,-0.571,1.1038,-250.1374,17.8702,-41.7176
1.0,-0.563,1.2053,-250.1374,26.3053,-42.1603
0.9868,-0.5713,1.2971,-250.1374,34.7939,-42.4275
0.959,-0.5801,1.4043,-250.1374,43.2061,-43.4427
0.9365,-0.5933,1.4993,-250.1374,51.4962,-44.0305
0.9077,-0.6028,1.5532,-250.1374,59.3664,-44.9389
0.8748,-0.6235,1.6509,-250.1374,66.1832,-45.6489
0.8127,-0.6443,1.8081,-250.1374,72.8321,-46.9618
0.7546,-0.6519,1.916,-250.1374,75.9924,-47.7863
0.728,-0.655,1.9673,-250.1374,77.0611,-48.2901
0.6736,-0.6484,1.9999,-250.1374,76.0534,-49.0611
0.6182,-0.637,1.9999,-250.1374,73.1603,-49.542
0.564,-0.6238,1.9999,-250.1374,67.6107,-49.7634
0.5095,-0.605,1.9999,-250.1374,60.6641,-49.9695
0.4612,-0.5933,1.9999,-250.1374,51.6412,-49.9847
0.4124,-0.5713,1.9999,-250.1374,41.0458,-50.0458
0.3704,-0.541,1.9999,-250.1374,29.4122,-49.4504
0.3367,-0.5198,1.9999,-250.1374,17.2137,-49.4122
0.323,-0.4998,1.9999,-241.2977,3.9618,-48.1908
0.293,-0.4729,1.9999,-230.3053,-9.5267,-47.2901
0.2739,-0.45,1.9999,-219.1374,-22.7939,-46.458
0.2593,-0.4336,1.9999,-208.9084,-35.1527,-44.7786
0.2617,-0.415,1.9999,-198.4198,-46.5573,-42.9084
0.2664,-0.4045,1.9999,-188.2443,-57.0916,-40.9237
0.2656,-0.3987,1.9999,-178.3664,-66.1527,-38.1221
0.2766,-0.3899,1.9999,-168.6488,-73.6718,-35.1145
0.2842,-0.3916,1.9999,-158.5649,-78.7634,-32.0611
0.3032,-0.3975,1.9999,-148.6412,-81.3282,-28.4427
0.3303,-0.3958,1.9999,-138.8244,-81.8855,-24.2901
0.3479,-0.3853,1.9999,-128.5725,-80.5115,-19.9084
0.3706,-0.373,1.9999,-118.2443,-77.1069,-15.6031
0.4072,-0.3633,1.9999,-107.8321,-71.9008,-11.5115
0.4238,-0.3562,1.9999,-96.9008,-65.3435,-7.1069
0.4424,-0.3657,1.9999,-85.9389,-57.7481,-2.687
0.4524,-0.3733,1.9999,-74.9008,-49.4122,1.542
0.4639,-0.3889,1.9999,-64.0534,-40.1832,5.6718
0.4685,-0.3997,1.9999,-52.1603,-30.3053,9.6489
0.4692,-0.4114,1.9999,-41.2977,-21.3359,13.2137
0.4661,-0.4163,1.9999,-30.8626,-12.9542,17.1908
0.4526,-0.4155,1.9999,-20.313,-5.3435,20.2901
0.4429,-0.4141,1.9999,-10.229,1.1832,23.6183
0.4275,-0.4224,1.9999,-0.3588,6.4351,26.8321
0.4143,-0.4192,1.9999,9.4046,10.3511,29.7481
0.4026,-0.4258,1.9999,18.9695,12.8855,32.0076
0.3752,-0.417,1.9999,28.3359,13.9618,34.542
0.356,-0.4243,1.9999,37.2748,12.9389,36.4198
0.3391,-0.4238,1.9999,46.4275,10.8397,37.6641
0.313,-0.4297,1.9999,55.9008,7.3511,39.3359
0.2922,-0.4309,1.9999,64.4809,3.1527,40.9542
0.2905,-0.439,1.9999,72.6794,-1.6412,42.6183
0.2808,-0.4363,1.9999,81.5038,-6.7634,43.5954
0.2734,-0.4351,1.9999,89.855,-11.6107,45.2824
0.2749,-0.4348,1.9999,98.2366,-16.1527,46.8855
0.2761,-0.4438,1.9999,106.1985,-20.458,48.2595
0.272,-0.4514,1.9999,114.1298,-23.8779,49.6489
0.2737,-0.4517,1.9999,120.9924,-27.0153,51.3206
0.2773,-0.4436,1.9999,128.7557,-29.374,52.6412
0.2805,-0.4373,1.9999,136.8321,-31.0992,53.9542
0.2832,-0.4482,1.9597,143.4427,-32.4427,55.4656
0.2908,-0.4473,1.8972,150.3359,-33.5038,57.0382
0.2805,-0.449,1.8804,156.9084,-33.855,58.7634
0.2725,-0.459,1.7942,164.2977,-34.0611,61.0076
0.272,-0.4597,1.7439,170.5191,-33.9313,62.8168
0.2644,-0.468,1.6819,176.4427,-34.1298,64.7328
0.259,-0.4663,1.6345,182.7176,-34.2366,67.2672
0.2515,-0.4697,1.5771,187.9542,-34.084,69.2595
0.2417,-0.4749,1.5452,193.0458,-34.9084,71.5191
0.2373,-0.4829,1.52,197.8473,-35.3893,73.7252
0.2358,-0.4905,1.4612,202.2595,-35.9771,75.8626
0.2363,-0.4941,1.4141,206.7634,-36.7176,78.4504
0.2378,-0.5015,1.363,210.9313,-37.2443,80.9771
0.2327,-0.5066,1.3296,214.7634,-37.4656,83.2366
0.2358,-0.5093,1.2756,218.771,-37.4809,85.687
0.2402,-0.5081,1.2224,222.5649,-37.3817,88.229
0.2507,-0.5139,1.1838,226.0534,-36.8244,90.6412
0.2544,-0.5073,1.1602,229.0687,-36.2519,92.8244
0.2515,-0.5056,1.136,232.1374,-35.5725,95.7252
0.2603,-0.4983,1.0913,235.1756,-34.7328,98.0305
0.26,-0.4983,1.0654,238.0076,-33.771,100.687
0.2661,-0.4841,1.0283,240.9847,-32.3969,103.5115
0.2727,-0.479,1.0122,244.4198,-30.6412,106.0076
0.281,-0.4778,0.9758,247.5038,-28.687,108.4198
0.29,-0.4866,0.9573,250.1298,-26.5573,110.9924
0.2954,-0.4912,0.9453,250.1298,-24.2595,113.7481
0.2896,-0.5176,0.9238,250.1298,-21.5725,116.9313
0.293,-0.5295,0.9023,250.1298,-18.9084,120.0916
0.2815,-0.5376,0.8906,250.1298,-16.458,123.5573
0.2815,-0.55,0.8757,250.1298,-13.9771,126.7405
0.282,-0.564,0.8801,250.1298,-11.8626,130.2595
0.2788,-0.5735,0.8665,250.1298,-9.6718,134.1221
0.2776,-0.5925,0.8684,250.1298,-7.9008,138.0382
0.2793,-0.6147,0.8513,250.1298,-5.8473,141.9008
0.2742,-0.6296,0.8491,250.1298,-4.3359,146.2137
0.2827,-0.658,0.8362,250.1298,-2.2977,150.5267
0.2864,-0.7012,0.8232,250.1298,-0.4122,155.0305
0.2935,-0.7344,0.8064,250.1298,1.1756,159.8092
0.3074,-0.7654,0.7864,250.1298,2.8397,164.916
0.3342,-0.8047,0.7554,250.1298,4.916,170.313
0.3596,-0.8379,0.7078,250.1298,7.1069,175.6412
0.4031,-0.8665,0.6506,250.1298,9.8473,181.2748
0.4609,-0.9011,0.6057,250.1298,13.0611,187.229
0.4929,-0.9175,0.5742,250.1298,16.4046,192.6336
0.553,-0.9553,0.5288,250.1298,20.0305,197.916
0.6055,-0.9788,0.4434,250.1298,23.374,202.6488
0.6814,-0.9961,0.3845,250.1298,26.9313,206.5802
0.7488,-1.0134,0.3174,250.1298,30.3435,209.9237
0.8245,-1.0225,0.2561,250.1298,33.4656,212.8473
0.8875,-1.0344,0.1975,250.1298,36.0534,214.7023
0.9578,-1.0376,0.1377,250.1298,38.0458,216.2366
0.9875,-1.0366,0.1172,250.1298,39.1069,216.2366
1.051,-1.0391,0.0625,250.1298,39.5038,215.5573
1.1196,-1.0488,-0.0085,250.1298,39.5344,213.9618
1.1816,-1.0522,-0.0637,250.1298,39.4427,211.7099
1.2402,-1.0459,-0.1289,250.1298,39.1527,208.7863
1.3013,-1.0386,-0.2053,250.1298,39.3053,205.2595
1.364,-1.0359,-0.2883,250.1298,40.4656,200.5114
1.3992,-1.0276,-0.3528,250.1298,41.2901,196.2443
1.4441,-1.0193,-0.4338,250.1298,42.5496,191.8244
1.4727,-1.0103,-0.5083,250.1298,44.1221,187.3893
1.5046,-0.9915,-0.5872,250.1298,44.8092,182.8473
1.5308,-0.9722,-0.6597,250.1298,45.3053,178.6794
1.5513,-0.9617,-0.7063,250.1298,45.8168,174.7939
1.5769,-0.9419,-0.7712,250.1298,46.5954,170.9771
1.605,-0.927,-0.8662,250.1298,47.855,168.0382
1.6226,-0.9082,-0.95,250.1298,49.6489,165.084
1.6545,-0.8892,-1.0288,250.1298,51.8015,162.0382
1.677,-0.8643,-1.1021,250.1298,54.4046,158.9237
1.689,-0.8479,-1.1748,250.1298,57.374,156.0916
1.7085,-0.8242,-1.2249,250.1298,60.7023,153.1908
1.7195,-0.8115,-1.2542,250.1298,63.8321,150.084
1.7234,-0.7971,-1.2961,250.1298,67.0763,147.1221
1.7317,-0.7788,-1.3457,250.1298,69.8244,144.1832
1.7434,-0.7573,-1.3894,250.1298,71.8931,141.1832
1.7539,-0.7236,-1.4209,250.1298,73.7863,138.374
1.7651,-0.678,-1.429,250.1298,74.9237,136.1374
1.7725,-0.6304,-1.4634,250.1298,75.6183,133.4427
1.7722,-0.5913,-1.4929,250.1298,75.8092,130.8321
1.7864,-0.5647,-1.5117,250.1298,75.6718,127.9695
1.7815,-0.5571,-1.53,250.1298,75.3817,125.0534
1.7883,-0.5354,-1.5537,250.1298,74.9466,121.4351
1.7908,-0.5396,-1.5732,250.1298,73.9771,118.0534
1.79,-0.5198,-1.5798,250.1298,72.7863,114.5267
1.7957,-0.5037,-1.5947,250.1298,71.1374,110.458
1.7874,-0.4839,-1.5908,250.1298,68.4275,106.2214
1.7788,-0.4719,-1.6013,250.1298,65.855,102.2443
1.7832,-0.4426,-1.6118,250.1298,64.3511,97.9542
1.762,-0.4321,-1.6157,250.1298,63.4885,94.5878
1.749,-0.4341,-1.6191,250.1298,62.0916,91.8244
1.7412,-0.439,-1.6091,250.1298,60.1908,88.8779
1.7236,-0.4434,-1.6033,250.1298,58.0534,86.5954
1.7114,-0.4575,-1.6077,250.1298,55.1221,85.1298
1.6958,-0.4741,-1.6238,250.1298,51.6183,83.6718
1.677,-0.4973,-1.6318,250.1298,47.374,82.7328
1.6975,-0.501,-1.6697,249.0,43.7023,82.5496
1.6631,-0.52,-1.6985,246.3893,39.0076,81.7176
1.6565,-0.5044,-1.7273,243.8473,35.1069,81.7405
1.6685,-0.499,-1.7537,240.4657,36.9847,83.9237
1.6826,-0.4849,-1.8562,236.4504,42.0153,86.3588
1.6533,-0.4993,-1.8364,231.5802,40.7786,87.1145
1.678,-0.4841,-1.8918,226.626,38.1145,88.5191
1.6794,-0.4773,-1.9353,221.145,37.229,89.7252
1.6887,-0.4753,-1.9607,215.4962,34.5267,90.5954
1.7219,-0.4687,-2.0,209.7557,32.6107,92.1603
1.7385,-0.47,-2.0,203.7863,31.9618,93.084
1.7556,-0.4739,-2.0,197.5191,30.5344,93.771
1.7888,-0.478,-2.0,191.4504,29.8473,94.1069
1.8223,-0.4734,-2.0,185.542,29.374,94.3511
1.866,-0.4939,-2.0,179.9389,28.4504,94.374
1.9104,-0.5017,-2.0,174.4122,27.7252,93.7252
1.9595,-0.511,-2.0,168.4275,27.0992,92.6031
1.9999,-0.5234,-2.0,163.8397,25.8855,90.8855
1.9999,-0.532,-2.0,158.8015,25.6718,88.458
1.9999,-0.5276,-2.0,153.9389,25.5954,85.2366
1.9999,-0.5212,-2.0,148.771,26.0916,81.3511
1.9999,-0.512,-2.0,143.4657,27.5114,76.6794
1.9999,-0.5012,-2.0,137.4809,29.6107,71.9237
1.9999,-0.4932,-2.0,131.5038,32.4351,66.4351
1.9999,-0.4871,-2.0,125.0916,36.0382,60.5267
1.9999,-0.4766,-2.0,117.4962,39.6107,54.0458
1.9999,-0.4666,-2.0,110.5878,43.3588,47.0534
1.9999,-0.4578,-2.0,102.6107,47.2366,39.8931
1.9999,-0.4473,-2.0,94.8015,51.145,33.0229
1.9999,-0.4353,-2.0,86.7481,54.8168,25.9618
1.9999,-0.4187,-2.0,78.8321,58.7481,18.4198
1.9999,-0.4116,-2.0,71.1069,62.7328,11.8168
1.9999,-0.4004,-2.0,62.1298,67.0992,4.3817
1.9999,-0.386,-2.0,53.7328,70.9618,-2.7023
1.9999,-0.3691,-2.0,45.4962,74.6641,-9.2366
1.9999,-0.3577,-2.0,36.8931,77.916,-15.3206
1.9999,-0.3386,-2.0,28.4122,80.8244,-21.1527
1.9999,-0.3201,-2.0,19.9771,83.3053,-26.7634
1.9999,-0.3115,-2.0,11.4733,85.3206,-32.2977
1.9999,-0.3052,-2.0,3.0229,87.3664,-37.1527
1.9999,-0.3057,-2.0,-4.9618,89.0916,-41.3664
1.9999,-0.2993,-2.0,-13.2366,90.3511,-45.6183
1.9999,-0.2876,-2.0,-21.2977,90.7023,-48.9771
1.9999,-0.2837,-2.0,-29.5038,90.6107,-52.229
1.9631,-0.271,-2.0,-37.3282,89.8168,-54.8702
1.9307,-0.2561,-2.0,-45.0153,88.8473,-57.1221
1.8962,-0.2529,-2.0,-53.3969,87.6718,-59.2901
1.8674,-0.2456,-2.0,-61.6031,86.5649,-61.2977
1.8513,-0.2419,-2.0,-69.7328,85.1679,-63.084
1.8267,-0.2395,-2.0,-78.8092,83.5267,-65.313
1.7959,-0.2354,-2.0,-87.8397,82.0382,-67.1985
1.7693,-0.2288,-2.0,-96.7939,80.6336,-69.1908
1.7358,-0.2214,-2.0,-106.0687,79.5115,-71.1679
1.6948,-0.2207,-2.0,-115.1985,78.3435,-73.5802
1.6611,-0.2185,-2.0,-124.5802,76.9618,-75.5802
1.6104,-0.2183,-2.0,-134.2214,74.8626,-77.0687
1.5632,-0.2183,-2.0,-143.7481,72.5725,-78.6107
1.5466,-0.2227,-2.0,-153.1756,69.4809,-79.9542
1.4902,-0.2187,-1.9629,-162.916,65.5343,-80.7023
1.4473,-0.22,-1.9165,-172.6718,60.9924,-80.9237
1.3921,-0.231,-1.8655,-182.6031,56.0763,-81.5496
1.3525,-0.2371,-1.8284,-191.9008,50.6947,-80.9771
1.3123,-0.2446,-1.7734,-201.6183,45.0458,-80.3817
1.2607,-0.2617,-1.7183,-211.084,39.2824,-79.9389
1.2319,-0.2769,-1.6687,-220.3206,33.3511,-79.2061
1.2095,-0.2854,-1.6345,-229.3435,27.3969,-77.916
1.1738,-0.2847,-1.5784,-238.3435,20.7557,-76.687
1.1414,-0.2917,-1.5085,-246.3969,14.4962,-75.5802
1.1165,-0.2998,-1.447,-250.1374,7.4046,-74.5038
1.0876,-0.2976,-1.3801,-250.1374,0.5115,-73.4885
1.0562,-0.3118,-1.3225,-250.1374,-6.5954,-71.8626
1.0337,-0.322,-1.2617,-250.1374,-14.687,-70.0229
1.0164,-0.3296,-1.1965,-250.1374,-21.313,-68.4046
1.0054,-0.3308,-1.1541,-250.1374,-27.2443,-65.8779
1.0151,-0.3328,-1.1101,-250.1374,-31.9618,-63.1603
1.0117,-0.333,-1.0789,-250.1374,-34.4962,-59.8473
1.0212,-0.3418,-1.0503,-250.1374,-35.1832,-56.542
1.0347,-0.3413,-1.0273,-250.1374,-34.084,-52.5802
1.0569,-0.3552,-1.0034,-250.1374,-30.8397,-48.9695
1.0745,-0.3682,-0.969,-250.1374,-26.1603,-45.5344
1.1023,-0.3743,-0.9546,-250.1374,-19.7939,-41.687
1.1274,-0.3772,-0.9294,-250.1374,-12.1679,-38.458
1.1609,-0.3892,-0.9045,-250.1374,-3.4885,-35.9008
1.1951,-0.3958,-0.8794,-250.1374,6.4275,-33.2519
1.2151,-0.4048,-0.8613,-250.1374,17.6336,-30.9237
1.2307,-0.4055,-0.8523,-250.1374,29.4504,-29.1832
1.2529,-0.4094,-0.8181,-250.1374,41.855,-28.2595
1.2642,-0.4136,-0.781,-250.1374,53.626,-27.9847
1.2837,-0.4019,-0.7529,-250.1374,65.7328,-28.3511
1.282,-0.4089,-0.7178,-250.1374,76.5115,-29.4046
1.2876,-0.4116,-0.679,-250.1374,86.0305,-31.3359
1.2688,-0.4177,-0.6531,-250.1374,94.1069,-33.626
1.2495,-0.4207,-0.606,-250.1374,101.2977,-36.4046
1.2393,-0.4265,-0.5967,-250.1374,105.5802,-39.3511
1.2151,-0.4141,-0.5732,-250.1374,108.6031,-43.1069
1.1758,-0.4109,-0.5583,-250.1374,110.8931,-46.4122
1.1387,-0.415,-0.5159,-250.1374,111.1145,-49.8855
1.0752,-0.4133,-0.4702,-250.1374,109.5038,-53.5496
1.0242,-0.4207,-0.4189,-250.1374,106.1527,-57.2137
0.9673,-0.4221,-0.3647,-250.1374,100.8168,-60.8397
0.907,-0.4207,-0.2793,-250.1374,94.0534,-64.2901
0.8499,-0.4255,-0.2197,-250.1374,86.3664,-67.1832
0.8208,-0.4136,-0.1794,-250.1374,77.9618,-69.7099
0.748,-0.4309,-0.0837,-250.1374,68.2137,-72.145
0.6877,-0.447,0.0117,-250.1374,57.4656,-74.1374
0.6199,-0.4858,0.1218,-250.1374,45.374,-75.7023
0.5771,-0.511,0.2292,-250.1374,30.5191,-76.6641
0.511,-0.5005,0.3386,-250.1374,16.2595,-77.7786
0.4727,-0.4854,0.4714,-250.1374,2.3282,-77.5802
0.4314,-0.4797,0.585,-250.1374,-12.0076,-77.2672
0.3999,-0.4814,0.6897,-250.1374,-25.5267,-76.687
0.3794,-0.4985,0.7417,-250.1374,-39.542,-75.7099
0.354,-0.5229,0.8503,-250.1374,-53.2366,-74.0305
0.3367,-0.5596,0.9468,-250.1374,-66.2214,-71.687
0.3408,-0.5806,1.0503,-250.1374,-77.9771,-68.7099
0.3389,-0.5937,1.1589,-250.1374,-88.1908,-64.8321
0.3457,-0.6057,1.2478,-250.1374,-94.8397,-60.7252
0.3674,-0.6072,1.3433,-250.1374,-100.4198,-55.8702
0.3855,-0.6182,1.4207,-250.1374,-104.4504,-50.6794
0.4036,-0.6147,1.4697,-250.1374,-105.6183,-45.1145
0.4307,-0.6187,1.5764,-250.1374,-105.2672,-39.3588
0.4636,-0.6194,1.6514,-250.1374,-103.0382,-33.9771
0.4944,-0.6309,1.7314,-250.1374,-99.9008,-28.8244
0.531,-0.6318,1.8062,-250.1374,-95.7863,-23.7405
0.5623,-0.6448,1.8818,-250.1374,-91.5878,-18.9542
0.5894,-0.6475,1.9424,-250.1374,-87.313,-13.458
0.6128,-0.6562,1.9993,-250.1374,-82.0916,-9.3282
0.6379,-0.6414,1.9999,-249.2519,-77.5496,-5.3893
0.6699,-0.6367,1.9999,-231.1069,-73.0458,-1.5496
0.6926,-0.6277,1.9999,-212.9771,-68.6336,2.0763
0.7122,-0.615,1.9999,-195.458,-64.3817,5.4962
0.7212,-0.5994,1.9999,-178.6336,-60.1527,8.687
0.7339,-0.5742,1.9999,-162.0763,-56.7939,11.2901
0.749,-0.5557,1.9999,-146.1069,-54.7863,13.4809
0.7485,-0.5349,1.9999,-130.3969,-54.3435,14.7405
0.7461,-0.512,1.9999,-115.0916,-54.7481,16.0687
0.7532,-0.4883,1.9999,-100.7252,-54.5802,17.0916
0.7563,-0.4739,1.9999,-87.1832,-54.7786,18.5038
0.7439,-0.4475,1.9999,-73.7634,-55.8779,19.7252
0.7478,-0.429,1.9999,-62.5802,-57.1298,20.5496
0.7488,-0.3943,1.9309,-50.5115,-58.7328,21.8321
0.7534,-0.3633,1.8567,-40.1298,-60.0076,23.6489
0.7561,-0.3433,1.7585,-29.9695,-61.3282,25.8473
0.7666,-0.3389,1.686,-20.1527,-62.3282,28.2748
0.7773,-0.3296,1.5969,-11.2214,-63.2519,30.687
0.7896,-0.3176,1.5122,-2.5649,-64.3969,33.3969
0.8154,-0.2998,1.4409,5.5267,-65.5802,35.8092
0.8491,-0.2954,1.3459,12.6107,-66.0916,38.1374
0.8611,-0.2825,1.304,18.9008,-65.855,40.5878
0.8818,-0.2678,1.2141,24.2366,-65.8015,42.6641
0.9165,-0.2419,1.1587,29.0687,-64.8473,44.2519
0.9478,-0.2161,1.0874,33.0,-63.7023,46.0305
0.9717,-0.1985,1.0254,36.313,-62.9847,46.6107
1.0068,-0.1777,0.9834,39.1069,-63.084,47.0992
1.0515,-0.1484,0.9197,41.1069,-62.0153,46.9237
1.0752,-0.1152,0.865,41.6412,-61.0534,46.9771
1.0859,-0.1116,0.8362,41.7863,-60.3969,46.2748
1.1204,-0.0793,0.7717,42.0687,-59.2061,46.0763
1.1343,-0.0786,0.741,42.1756,-58.8779,45.374
1.1575,-0.0791,0.7095,42.3664,-59.9771,44.0076
1.1724,-0.0891,0.679,42.8855,-60.916,42.626
1.1956,-0.0757,0.6545,43.0611,-61.7557,41.1069
1.2119,-0.0654,0.614,42.9542,-62.2672,39.2061
1.24,-0.0417,0.5708,42.9924,-61.9237,37.9313
1.2476,-0.0359,0.5459,43.1374,-61.8397,36.4885
1.2439,-0.0359,0.5305,43.2366,-61.9237,34.6718
1.2666,-0.0229,0.5085,43.4198,-60.7557,32.9084
1.2766,-0.0232,0.4822,43.7939,-59.7252,31.5191
1.2773,-0.0249,0.4507,43.771,-59.1221,30.0458
1.2896,-0.0076,0.4175,43.0534,-57.9084,27.9771
1.2937,0.0095,0.3752,42.3511,-56.0458,26.2214
1.3035,0.0283,0.3464,41.6947,-53.9924,24.8473
1.3074,0.0334,0.3101,40.8397,-51.1679,23.6031
1.3062,0.0371,0.2971,40.0076,-48.084,22.3664
1.2937,0.0298,0.2852,39.1298,-45.2061,21.5954
1.2876,0.0293,0.2603,38.1679,-42.3435,20.8397
1.2849,0.0273,0.2603,37.1756,-39.3435,19.9771
1.2778,0.0315,0.2458,36.2901,-36.0611,19.3053
1.269,0.0444,0.2314,35.4046,-33.1985,18.7557
1.2681,0.0493,0.2361,34.4656,-29.8168,18.084
1.2617,0.0449,0.2339,34.3282,-26.9924,17.5038
1.252,0.0396,0.2383,33.916,-24.5267,16.9237
1.2476,0.0361,0.2388,33.2443,-22.0229,16.1527
1.2322,0.0361,0.2488,33.4656,-20.0763,15.5802
1.2358,0.0303,0.2571,33.1985,-18.4504,14.9618
1.2219,0.03,0.27,33.6641,-17.2366,13.8779
1.2183,0.04,0.281,34.3053,-16.8168,13.1527
1.2021,0.0371,0.2883,35.0458,-16.2977,12.5344
1.1946,0.0352,0.2847,36.0916,-15.6183,11.9084
1.1917,0.0283,0.2759,37.2519,-15.4885,11.5649
1.1865,0.0266,0.2949,38.8626,-15.2061,10.687
1.1724,0.0352,0.2729,39.9237,-15.2595,9.916
1.1689,0.031,0.2698,41.2137,-15.229,9.2901
1.1653,0.0298,0.2664,42.8626,-15.2443,8.4046
1.1504,0.03,0.2498,44.2061,-15.5344,7.7557
1.1443,0.0408,0.2441,45.626,-15.5496,7.3511
1.1277,0.0469,0.2332,47.2519,-15.7099,6.8397
1.1272,0.0491,0.2148,48.1221,-15.5038,6.7328
1.1125,0.0483,0.1987,49.6565,-15.1527,6.2748
1.0991,0.0576,0.1917,51.084,-15.0305,6.0153
1.0916,0.05,0.175,52.2672,-14.7863,6.4122
1.0867,0.0549,0.1726,53.4504,-14.7863,6.1832
1.0864,0.0669,0.1597,54.9313,-14.8015,6.1908
1.0798,0.0669,0.1404,56.0229,-14.8244,6.5115
1.0757,0.0688,0.134,57.2443,-15.0076,6.5878
1.0701,0.0762,0.1021,58.3969,-14.9618,6.8779
1.0754,0.0811,0.0776,59.6718,-15.0229,6.9618
1.0803,0.0884,0.0422,60.1145,-14.7634,6.9084
1.0715,0.0894,0.0125,60.687,-14.4046,6.9084
1.0725,0.0999,-0.0083,61.145,-13.8244,7.0687
1.0779,0.1016,-0.0242,61.2366,-13.4046,6.855
1.0725,0.1128,-0.0476,61.1145,-12.6641,6.771
1.0745,0.1191,-0.0771,60.5115,-11.5954,6.8473
1.0771,0.1228,-0.0911,59.7023,-10.771,6.5115
1.0693,0.1233,-0.1265,58.6031,-9.9847,6.3969
1.0686,0.134,-0.1443,57.5344,-8.8397,6.687
1.0627,0.1345,-0.1626,56.2061,-8.1221,6.8092
1.0642,0.1394,-0.1831,54.7176,-7.0305,6.8092
1.0627,0.1396,-0.1846,53.229,-6.3053,7.1985
1.0659,0.146,-0.2053,51.374,-5.0382,7.7634
1.0615,0.1467,-0.2092,49.4198,-3.9313,7.9389
1.0664,0.1467,-0.2234,47.3435,-3.0687,8.1527
1.0647,0.1428,-0.2485,45.374,-1.8397,8.6947
1.0833,0.1479,-0.2581,43.4885,-0.6412,9.0229
1.0872,0.1467,-0.2551,41.2977,0.9313,9.0
1.0959,0.1355,-0.2585,39.3588,2.7939,9.374
1.0989,0.135,-0.2634,37.3282,4.7557,9.4198
1.1025,0.1345,-0.2656,35.1832,6.6107,9.458
1.1079,0.1299,-0.2661,33.4351,8.2137,9.1527
1.1135,0.1323,-0.2529,31.3511,9.855,9.0992
1.1189,0.1208,-0.2366,29.7176,11.2977,8.5038
1.1179,0.1184,-0.2358,27.9695,12.229,7.916
1.1174,0.1084,-0.2136,26.6489,12.8855,7.2595
1.1196,0.1008,-0.2051,24.916,13.2977,6.7634
1.114,0.0984,-0.1882,23.7863,13.1145,5.4885
1.1033,0.0933,-0.177,22.7328,12.3969,4.8931
1.1052,0.0884,-0.1479,21.6336,11.1985,4.3359
1.0947,0.082,-0.1384,20.5802,9.8855,3.4427
1.0989,0.0713,-0.1458,20.0,8.4122,3.1069
1.094,0.0688,-0.124,19.2748,6.8855,2.5038
1.0818,0.0613,-0.1069,18.8779,4.7252,1.9389
1.0774,0.0608,-0.093,18.1756,1.4351,0.8092
1.0764,0.0608,-0.072,17.5114,-1.5038,-0.0153
1.0806,0.0669,-0.0828,17.1298,-3.5878,-0.7328
1.0701,0.0576,-0.0835,17.0076,-5.4046,-1.0229
1.0674,0.0535,-0.0767,16.8779,-7.313,-1.458
1.0659,0.0488,-0.0571,17.145,-9.145,-1.9924
1.0618,0.0476,-0.0642,17.5267,-10.9237,-2.1832
1.0659,0.0437,-0.063,18.5802,-11.7099,-1.9008
1.063,0.0471,-0.0686,19.3893,-12.1527,-1.916
1.0625,0.0503,-0.0627,20.4809,-11.8702,-1.4962
1.0652,0.0496,-0.0706,21.6641,-11.6412,-0.8473
1.0642,0.0476,-0.0779,22.7939,-10.6947,-0.3893
1.0715,0.0493,-0.0745,23.6718,-9.8473,-0.0305
1.0696,0.0498,-0.0737,24.6947,-9.5878,0.687
1.062,0.0435,-0.0759,25.6489,-9.2901,0.855
1.0715,0.0642,-0.0945,26.4427,-8.6947,1.0458
1.0757,0.0586,-0.0957,27.3817,-8.0,1.4885
1.0776,0.0588,-0.1021,27.9084,-7.1145,1.9389
1.0813,0.0576,-0.1106,28.374,-6.145,2.1298
1.0869,0.0557,-0.1167,29.1221,-4.9924,2.6489
1.0964,0.0544,-0.1331,29.3817,-3.7023,2.9313
1.0959,0.0483,-0.1313,29.5878,-1.7863,3.2748
1.1067,0.0576,-0.134,29.6031,-0.2061,3.4885
1.1128,0.0488,-0.1399,29.7405,0.8015,3.6489
1.1174,0.0505,-0.1506,29.8015,2.1221,3.1527
1.1221,0.0496,-0.1614,29.374,3.6412,3.3664
1.1316,0.061,-0.1682,28.9771,4.7863,3.0534
1.1348,0.0525,-0.1763,28.6107,6.2595,2.9008
1.1394,0.0498,-0.1758,27.916,7.9618,2.6641
1.1331,0.0562,-0.1692,27.3664,9.5115,2.5115
1.1348,0.0559,-0.1707,26.6718,10.8168,2.0
1.1323,0.0579,-0.168,25.5725,11.7557,1.6641
1.1233,0.0635,-0.1538,24.8626,12.3511,1.2824
1.1257,0.0579,-0.1477,24.4046,12.9313,0.8702
1.1182,0.0627,-0.1504,23.5496,13.5954,0.5802
1.1104,0.0491,-0.1331,22.7863,13.6107,0.229
1.1194,0.0503,-0.1267,22.1527,13.9313,-0.1069
1.1184,0.0464,-0.1235,21.3664,13.9237,0.0153
1.1091,0.0476,-0.1299,20.6947,13.1832,-0.2443
1.1055,0.0371,-0.1108,20.3664,11.8015,-0.4198
1.1045,0.0339,-0.1108,19.8855,10.8321,-0.6641
1.1086,0.032,-0.1143,19.6183,9.4122,-1.0305
1.1174,0.0286,-0.104,19.3588,7.916,-1.4809
1.1121,0.0249,-0.1135,19.1908,6.458,-1.6031
1.1174,0.0198,-0.0937,18.8321,4.8931,-2.2977
1.1145,0.0227,-0.1067,18.313,4.084,-2.7786
1.1167,0.0261,-0.1104,17.8168,2.6107,-3.2595
1.1157,0.0264,-0.1013,17.1069,-0.2519,-3.7863
1.1162,0.0198,-0.1091,16.229,-2.0687,-4.5496
1.1101,0.0171,-0.1045,15.7557,-3.9847,-5.229
1.1162,0.0256,-0.0986,14.7939,-6.8702,-5.6183
1.1189,0.0286,-0.1084,14.3359,-7.8473,-6.229
1.1221,0.0344,-0.1082,14.1374,-8.7176,-6.6336
1.1233,0.03,-0.1082,13.8779,-9.2061,-7.0153
1.1179,0.0317,-0.1069,13.8168,-9.1908,-7.3053
1.1262,0.033,-0.104,13.9847,-9.2595,-7.5878
1.1189,0.0337,-0.1062,14.313,-8.855,-7.8473
1.1157,0.0327,-0.1057,14.5954,-8.7099,-7.9084
1.1172,0.0396,-0.1035,14.916,-8.2443,-7.9695
1.1096,0.0415,-0.0962,15.374,-7.7634,-7.9389
1.1101,0.0317,-0.0947,15.9847,-7.2595,-7.8473
1.1064,0.0425,-0.0962,16.4122,-6.8244,-7.458
1.0999,0.0388,-0.1099,16.6489,-5.9084,-7.1603
1.103,0.0403,-0.1047,17.084,-4.5802,-6.8702
1.1001,0.05,-0.1042,17.3588,-3.8855,-6.3817
1.1021,0.0474,-0.1106,17.9313,-2.8168,-5.9313
1.0984,0.0439,-0.1047,18.2748,-1.6489,-5.6412
1.0981,0.0476,-0.1035,18.5649,-0.6031,-5.2137
1.1016,0.0552,-0.0989,18.9847,0.7252,-4.771
1.0991,0.0522,-0.1028,19.0992,1.7557,-4.8092
1.1072,0.0518,-0.1079,19.458,3.374,-4.145
1.104,0.0608,-0.1028,19.6183,4.8702,-3.7328
1.1001,0.0537,-0.0916,19.9313,6.1374,-3.8015
1.1018,0.0579,-0.0955,19.8702,7.3664,-3.3588
