ax,ay,az,gx,gy,gz
1.209,-0.0564,-0.7432,-18.687,-29.1908,-6.5573
1.2034,-0.0642,-0.76,-21.3511,-30.9389,-7.5649
1.2061,-0.0769,-0.772,-23.8779,-32.8473,-8.4656
1.2175,-0.0884,-0.7954,-26.5802,-34.3511,-9.3053
1.2136,-0.0879,-0.8149,-29.1832,-35.6031,-10.4351
1.2173,-0.105,-0.8396,-31.1069,-36.7328,-11.5802
1.2168,-0.1184,-0.8616,-33.6412,-37.9237,-12.5115
1.2205,-0.1265,-0.8755,-35.9924,-39.0534,-13.687
1.2168,-0.1501,-0.8882,-38.313,-40.7023,-14.3969
1.2183,-0.1604,-0.8843,-40.8397,-42.1374,-15.1298
1.2283,-0.1587,-0.9075,-43.313,-43.8626,-16.4122
1.23,-0.1531,-0.916,-45.458,-45.5267,-17.145
1.2415,-0.1416,-0.9377,-47.9237,-46.8702,-17.6565
1.2583,-0.1282,-0.969,-50.3969,-47.5115,-18.2901
1.2737,-0.1396,-0.9954,-52.8168,-47.4122,-18.9237
1.2839,-0.1377,-1.0083,-55.6183,-46.7328,-19.5878
1.2959,-0.1501,-1.0488,-58.4427,-44.9237,-20.1832
1.3008,-0.1597,-1.0752,-61.1527,-42.687,-20.9924
1.3088,-0.165,-1.093,-64.1374,-40.3817,-22.0992
1.3184,-0.175,-1.1133,-67.145,-37.9008,-22.855
1.3201,-0.1685,-1.1287,-70.1756,-35.1374,-24.313
1.3267,-0.1636,-1.1409,-73.4885,-32.542,-25.2519
1.3367,-0.1655,-1.1436,-77.542,-29.3969,-26.6412
1.334,-0.1606,-1.1624,-81.1832,-26.4962,-28.2366
1.332,-0.1597,-1.1746,-85.5191,-22.5878,-29.5573
1.3276,-0.1653,-1.1765,-89.2061,-19.5878,-30.8092
1.3267,-0.1606,-1.1821,-92.9237,-16.6031,-32.2595
1.3149,-0.1704,-1.1841,-97.1145,-13.7328,-33.6565
1.312,-0.1746,-1.1936,-100.6412,-11.2137,-35.0229
1.2976,-0.1802,-1.1968,-104.6031,-9.0611,-36.4504
1.2913,-0.1831,-1.1926,-108.4427,-7.4656,-37.855
1.281,-0.1912,-1.2031,-112.2214,-5.7328,-38.8397
1.2725,-0.199,-1.2031,-116.2595,-5.0153,-40.1145
1.2656,-0.1975,-1.1963,-119.9771,-5.1679,-41.6947
1.2654,-0.199,-1.2009,-124.0916,-4.7863,-42.7786
1.2537,-0.2004,-1.2102,-128.4351,-4.6565,-43.6031
1.2542,-0.2036,-1.2256,-132.7481,-4.1069,-44.9008
1.2527,-0.2041,-1.2129,-136.8931,-4.0534,-45.7328
1.2395,-0.2124,-1.2188,-141.3817,-4.4351,-46.9618
1.2266,-0.2124,-1.231,-145.7481,-4.7786,-48.0305
1.2209,-0.2124,-1.23,-150.0992,-5.6718,-49.145
1.22,-0.2134,-1.2327,-154.6031,-7.2214,-50.1374
1.2109,-0.2126,-1.2349,-159.4198,-9.3282,-51.5344
1.21,-0.2134,-1.2402,-164.084,-11.3969,-52.6565
1.2146,-0.2085,-1.2424,-169.0,-13.9847,-53.6947
1.2173,-0.2087,-1.2446,-174.0076,-16.7786,-55.2214
1.2048,-0.2036,-1.2629,-179.2595,-19.8015,-56.6183
1.2078,-0.1934,-1.26,-184.771,-23.4046,-57.7405
1.1985,-0.1868,-1.2607,-190.5802,-26.8244,-59.4809
1.1992,-0.1755,-1.2483,-196.5649,-30.7176,-61.6565
1.1907,-0.1589,-1.24,-202.3664,-35.2366,-63.542
1.1875,-0.134,-1.2273,-208.6031,-40.1985,-65.6641
1.1897,-0.1104,-1.2151,-215.1145,-45.7634,-67.7557
1.1812,-0.0911,-1.2056,-221.4122,-52.0763,-70.4885
1.1692,-0.0706,-1.1877,-228.313,-59.1298,-72.8855
1.1689,-0.0564,-1.1758,-235.4504,-67.2748,-75.6031
1.1631,-0.0532,-1.1689,-242.2137,-75.2366,-78.5649
1.1633,-0.0471,-1.1587,-250.0763,-84.2977,-81.8244
1.1699,-0.0439,-1.1548,-250.1374,-92.5115,-84.7939
1.1736,-0.0354,-1.156,-250.1374,-99.9466,-87.5038
1.1807,-0.0327,-1.1758,-250.1374,-108.4351,-91.8779
1.1897,-0.0293,-1.1753,-250.1374,-115.7939,-94.8779
1.2083,-0.0208,-1.2012,-250.1374,-122.6031,-98.1527
1.2219,-0.0071,-1.2195,-250.1374,-128.2977,-100.8244
1.2273,0.0012,-1.2231,-250.1374,-132.7405,-104.3359
1.2427,0.0156,-1.2434,-250.1374,-136.8168,-108.4198
1.2476,0.0237,-1.2415,-250.1374,-139.2901,-112.0916
1.259,0.0366,-1.2446,-250.1374,-141.0611,-115.4809
1.2773,0.0479,-1.2449,-250.1374,-140.9466,-119.687
1.2932,0.0581,-1.2361,-250.1374,-139.2214,-122.9313
1.2988,0.0635,-1.2354,-250.1374,-135.4046,-126.2824
1.3032,0.0676,-1.2192,-250.1374,-129.0,-128.9084
1.301,0.0625,-1.2122,-250.1374,-120.1832,-131.0992
1.3054,0.053,-1.1936,-250.1374,-109.6718,-132.5725
1.2942,0.051,-1.1765,-250.1374,-98.5191,-134.0
1.2751,0.0325,-1.1418,-250.1374,-85.9313,-134.8092
1.239,-0.0015,-1.063,-250.1374,-68.2443,-135.2443
1.1987,-0.0271,-1.0122,-250.1374,-55.3511,-135.084
1.1772,-0.0388,-0.9819,-250.1374,-42.3206,-134.9084
1.1245,-0.0693,-0.9138,-250.1374,-28.7328,-134.8702
1.0735,-0.1123,-0.8533,-250.1374,-16.7939,-134.3282
1.0132,-0.1409,-0.78,-250.1374,-5.6947,-133.8702
0.9524,-0.1809,-0.7151,-250.1374,4.8092,-132.4733
0.896,-0.2117,-0.6331,-250.1374,14.1374,-131.4962
0.8245,-0.2363,-0.554,-250.1374,22.458,-130.2977
0.7603,-0.2659,-0.4722,-250.1374,29.7863,-129.0458
0.699,-0.291,-0.3762,-250.1374,35.3359,-127.1603
0.6643,-0.2991,-0.3333,-250.1374,38.8397,-125.5573
0.5962,-0.3142,-0.2585,-250.1374,40.3588,-123.2901
0.5312,-0.3296,-0.1738,-250.1374,40.5878,-121.0916
0.47,-0.3435,-0.0898,-250.1374,39.8015,-118.5649
0.4087,-0.3518,-0.0293,-250.1374,37.2824,-115.9237
0.3621,-0.3618,0.0491,-250.1374,33.3969,-112.8855
0.3127,-0.3667,0.1143,-250.1374,28.5344,-109.8473
0.2751,-0.3618,0.1692,-250.1374,22.3893,-106.5725
0.2546,-0.3704,0.1997,-250.1374,15.3817,-102.7786
0.2251,-0.3755,0.2505,-250.1374,7.5038,-98.6412
0.1851,-0.3799,0.3079,-250.1374,-0.8702,-95.6947
0.1633,-0.3826,0.3655,-250.1374,-10.4733,-92.5038
0.1426,-0.376,0.4099,-250.1374,-20.8779,-86.5038
0.1335,-0.3618,0.4565,-250.1374,-32.1069,-82.5725
0.1301,-0.3433,0.4963,-250.1374,-44.2672,-78.5038
0.1353,-0.3252,0.5291,-250.1374,-56.5496,-73.9389
0.135,-0.3152,0.5386,-250.1374,-69.2061,-69.6794
0.1528,-0.2817,0.5732,-250.1374,-81.5115,-65.5038
0.1775,-0.252,0.6018,-250.1374,-94.3053,-60.8702
0.2227,-0.2085,0.6133,-250.1374,-104.145,-56.4351
0.2642,-0.1738,0.613,-250.1374,-113.542,-51.9542
0.3206,-0.1365,0.6182,-250.1374,-122.5038,-47.2595
0.3804,-0.0879,0.6204,-250.1374,-129.2901,-43.0076
0.4414,-0.0598,0.6091,-250.1374,-134.542,-39.2824
0.4673,-0.0496,0.593,-250.1374,-138.1145,-35.7328
0.5259,-0.0371,0.5779,-250.1374,-140.145,-32.1985
0.5974,-0.0254,0.5579,-250.1374,-140.7328,-29.1679
0.665,-0.0273,0.5205,-250.1374,-138.3206,-26.542
0.7383,-0.0413,0.4976,-250.1374,-134.1832,-23.7634
0.801,-0.0359,0.4802,-250.1374,-127.687,-21.7557
0.8787,-0.0256,0.4268,-250.1374,-116.4351,-19.8321
0.9629,-0.0071,0.3955,-250.1374,-100.4885,-17.2748
0.9939,-0.009,0.3699,-250.1374,-83.8244,-14.8321
1.0461,-0.0027,0.344,-250.1374,-62.4427,-11.5649
1.0835,-0.0054,0.3286,-250.1374,-39.1985,-8.1069
1.1033,-0.0115,0.3301,-250.1374,-17.0153,-4.7786
1.114,-0.032,0.3345,-250.1374,5.6794,-1.2061
1.1079,-0.0642,0.3748,-250.1374,27.2901,2.4427
1.0796,-0.0823,0.4182,-250.1374,47.7481,6.542
1.042,-0.1174,0.4805,-250.1374,66.8931,10.5573
0.9434,-0.1384,0.6047,-250.1374,80.7023,13.4733
0.9133,-0.1541,0.6521,-250.1374,88.771,15.4198
0.8855,-0.1694,0.6497,-248.5802,101.3588,18.8244
0.9075,-0.1658,0.6294,-246.5343,116.9466,23.5802
0.8447,-0.1882,0.7527,-244.084,126.7939,28.7023
0.7451,-0.2151,0.8552,-242.0076,128.2748,32.5038
0.7085,-0.2483,0.8833,-240.8626,131.0,36.4122
0.6643,-0.304,0.9412,-239.7176,131.2214,39.9084
0.6111,-0.366,1.0078,-238.9237,127.7176,42.9618
0.5815,-0.4272,1.0752,-238.3969,122.3817,45.4198
0.5496,-0.4722,1.1206,-237.8473,115.8168,47.2748
0.5425,-0.5083,1.1975,-237.0382,107.7405,48.855
0.5325,-0.5332,1.2798,-236.2443,98.3817,49.3511
0.542,-0.5562,1.3508,-235.0916,87.8321,49.0382
0.5569,-0.5698,1.3708,-233.8855,76.5878,48.1756
0.5759,-0.5815,1.4553,-232.0992,64.7405,46.3969
0.6052,-0.603,1.5369,-229.9084,52.8397,43.9542
0.6335,-0.5999,1.5874,-227.2366,41.1298,40.6794
0.6609,-0.6147,1.6519,-223.5191,30.1145,37.0153
0.6887,-0.625,1.7151,-219.3664,19.771,32.7405
0.7205,-0.6216,1.7734,-214.4046,10.3206,28.3053
0.7451,-0.6223,1.8303,-208.2214,1.5573,23.7863
0.7617,-0.6204,1.843,-201.6412,-6.229,19.0
0.7886,-0.636,1.8804,-193.7481,-13.3664,14.1756
0.8203,-0.6511,1.916,-185.3664,-19.4733,9.4198
0.8379,-0.6509,1.9526,-176.1145,-25.1069,4.7328
0.8503,-0.6628,1.9875,-166.2595,-29.8702,0.4656
0.8569,-0.6689,1.9999,-155.8321,-33.8244,-3.626
0.8708,-0.6711,1.9999,-144.7405,-36.6794,-7.6565
0.8726,-0.6748,1.9999,-133.3206,-38.7328,-10.7405
0.8706,-0.6714,1.9999,-121.3588,-39.3282,-13.5878
0.8748,-0.666,1.9999,-109.1221,-39.0458,-15.9389
0.8735,-0.6582,1.9999,-96.5191,-37.7481,-17.4122
0.8545,-0.6379,1.9999,-83.7634,-36.0153,-17.9008
0.8479,-0.6257,1.9999,-70.0,-33.5267,-18.4198
0.8274,-0.6128,1.9999,-57.0076,-30.8702,-17.6565
0.8062,-0.5972,1.9999,-43.916,-28.0076,-16.0687
0.7859,-0.5796,1.9999,-31.0611,-25.0305,-14.3511
0.7637,-0.5715,1.9999,-18.7786,-22.374,-11.7939
0.7341,-0.5659,1.9999,-5.1221,-19.855,-8.2824
0.7051,-0.564,1.9999,7.4351,-17.7023,-5.0763
0.6814,-0.553,1.9999,19.771,-16.4046,-1.1832
0.6533,-0.543,1.9873,31.7252,-15.4656,2.5191
0.6069,-0.5339,1.9521,43.2519,-15.0229,6.3893
0.5901,-0.5215,1.9143,54.1985,-15.4351,10.4656
0.5793,-0.5078,1.8625,64.6565,-16.2137,15.1908
0.564,-0.5085,1.8506,74.0229,-17.626,19.3893
0.5376,-0.4963,1.8049,84.1756,-20.1298,23.8015
0.5334,-0.4827,1.7651,92.5573,-22.8626,28.2061
0.5332,-0.4607,1.7,100.3053,-24.6107,32.7786
0.5427,-0.4343,1.6248,106.9924,-25.3282,37.7634
0.541,-0.4072,1.5681,112.9695,-25.8015,42.7099
0.543,-0.3862,1.4963,119.4046,-26.2137,47.7176
0.5491,-0.377,1.4192,124.1908,-26.1527,52.3969
0.5535,-0.3831,1.3662,127.1603,-26.4656,56.6336
0.5425,-0.3828,1.3306,131.313,-27.2901,60.084
0.5442,-0.3889,1.3,134.8321,-28.3969,63.4504
0.55,-0.3894,1.2483,137.7176,-30.229,65.8779
0.5576,-0.3794,1.1934,141.3435,-32.4198,68.3359
0.5737,-0.365,1.1497,144.1069,-34.6641,70.2137
0.5698,-0.363,1.1394,146.4198,-36.3817,72.1756
0.5847,-0.3584,1.1111,148.7328,-37.7176,73.8321
0.5977,-0.3516,1.0815,150.3206,-39.0153,75.2977
0.6062,-0.3501,1.0493,152.6412,-40.2443,76.5802
0.6216,-0.356,1.0239,154.3817,-41.2672,77.5649
0.6316,-0.355,1.0024,156.2977,-42.2748,78.8092
0.6418,-0.3584,0.9688,158.3588,-43.4275,79.916
0.6504,-0.3716,0.9507,160.0382,-44.4962,80.4885
0.6619,-0.3743,0.927,161.855,-45.2824,81.3282
0.6782,-0.3857,0.9104,163.5954,-46.313,81.6641
0.6853,-0.3872,0.8745,165.3053,-46.5038,82.3588
0.7009,-0.3948,0.8713,167.145,-46.5954,82.6183
0.7192,-0.4041,0.855,168.9466,-46.8397,82.4122
0.7217,-0.4216,0.8301,170.916,-46.8092,82.0992
0.7273,-0.4292,0.8123,172.771,-46.7786,82.0229
0.728,-0.4338,0.7944,175.0305,-46.4427,82.1145
0.7317,-0.4404,0.791,177.4275,-45.5954,82.1985
0.7334,-0.4204,0.792,180.1908,-44.9313,83.1221
0.7424,-0.4072,0.761,183.0382,-42.1985,85.7099
0.7625,-0.4023,0.7324,186.0916,-38.0382,89.3511
0.7563,-0.4172,0.7241,189.0992,-32.9466,93.7099
0.7324,-0.4453,0.7295,192.4809,-29.7405,98.0534
0.7119,-0.4827,0.7322,195.9313,-27.3435,102.0076
0.6897,-0.5217,0.7412,199.5954,-26.0458,105.1756
0.689,-0.5322,0.7344,203.3053,-25.771,108.2061
0.6912,-0.5439,0.7358,208.229,-25.3817,110.6794
0.6843,-0.5615,0.7319,213.771,-24.5038,112.4657
0.6814,-0.5789,0.7527,219.313,-24.2366,114.0458
0.6831,-0.5903,0.7422,224.9924,-24.5191,115.1069
0.686,-0.6179,0.7339,230.6488,-24.3588,115.8779
0.6841,-0.6384,0.7107,236.7405,-25.3206,116.0992
0.6902,-0.6653,0.6938,242.9771,-26.9466,116.7481
0.7114,-0.6848,0.6609,249.3359,-28.771,117.8092
0.7185,-0.6946,0.6526,250.1298,-30.6336,118.7023
0.7437,-0.7058,0.6333,250.1298,-33.1374,120.5725
0.7756,-0.7083,0.613,250.1298,-36.0305,123.0916
0.822,-0.7034,0.583,250.1298,-38.4122,125.8702
0.8481,-0.6907,0.5583,250.1298,-39.626,128.8397
0.8906,-0.6821,0.5,250.1298,-40.2366,132.5114
0.9353,-0.6938,0.446,250.1298,-40.0,136.2519
0.9841,-0.7,0.3889,250.1298,-39.8168,140.0229
1.0073,-0.7048,0.363,250.1298,-38.9008,144.1756
1.0481,-0.6982,0.291,250.1298,-37.4427,148.4809
1.104,-0.679,0.2166,250.1298,-35.6641,152.1908
1.1636,-0.6992,0.1575,250.1298,-33.1069,155.8092
1.2205,-0.6978,0.0823,250.1298,-30.1756,159.5114
1.27,-0.6958,0.0168,250.1298,-27.0916,162.4809
1.323,-0.6958,-0.0413,250.1298,-23.8397,164.9771
1.3779,-0.6899,-0.1143,250.1298,-20.7405,167.0229
1.4087,-0.6848,-0.1538,250.1298,-17.8626,168.2595
1.4651,-0.6738,-0.2002,250.1298,-14.687,169.1679
1.5244,-0.676,-0.2725,250.1298,-11.9466,169.5191
1.6155,-0.6753,-0.3855,250.1298,-8.9389,169.0534
1.697,-0.6694,-0.4675,250.1298,-4.3588,168.3817
1.7729,-0.6663,-0.5466,250.1298,0.5954,167.6183
1.8252,-0.6604,-0.6074,250.1298,5.8779,165.2595
1.8853,-0.6501,-0.6865,250.1298,10.5191,162.7939
1.9307,-0.6287,-0.7358,250.1298,14.9924,159.1832
1.9453,-0.6233,-0.7446,250.1298,18.4656,154.8473
1.9783,-0.6013,-0.7864,250.1298,20.8321,149.6031
1.9954,-0.5759,-0.8076,250.1298,22.8321,143.1603
1.9999,-0.5503,-0.8625,250.1298,25.9695,135.7557
1.9999,-0.5083,-0.8945,250.1298,29.7405,127.6489
1.9999,-0.4646,-0.9155,250.1298,33.313,118.9542
1.9999,-0.4219,-0.9277,250.1298,37.5038,109.8397
1.9863,-0.3723,-0.9246,250.1298,41.1679,101.0687
1.9717,-0.3491,-0.9248,250.1298,44.2214,91.7557
1.9321,-0.3054,-0.9233,250.1298,46.5954,81.9008
1.8911,-0.2878,-0.9146,250.1298,48.0916,72.9847
1.8411,-0.2751,-0.9246,250.1298,48.8855,64.2214
1.7864,-0.2788,-0.9114,250.1298,48.8779,55.8702
1.7314,-0.2871,-0.9153,250.1298,48.9771,47.4046
1.6536,-0.2739,-0.9197,250.1298,49.3359,39.9008
1.583,-0.2478,-0.905,250.1298,48.7252,32.5115
1.5,-0.2202,-0.8711,250.1298,47.8015,26.0229
1.4656,-0.2144,-0.8518,250.1298,46.7099,20.5725
1.3823,-0.1938,-0.8386,250.1298,44.9237,15.5649
1.2976,-0.1851,-0.8198,249.0763,42.313,11.5496
1.2112,-0.1843,-0.7917,244.5954,39.1145,8.626
1.1335,-0.188,-0.771,240.9313,35.6718,6.9695
1.062,-0.189,-0.7673,237.2519,30.9618,5.6718
0.9917,-0.1797,-0.738,234.4504,26.0992,6.4962
0.9365,-0.1741,-0.7131,231.8015,20.8321,8.1908
0.9041,-0.1648,-0.6895,229.3359,14.313,11.374
0.8689,-0.1587,-0.6707,227.5038,7.8321,15.8473
0.8416,-0.1477,-0.6545,225.4809,1.8626,20.7328
0.8271,-0.1301,-0.6567,224.3664,-3.7176,27.0153
0.8135,-0.1313,-0.6616,223.5496,-8.3893,34.3359
0.8232,-0.137,-0.666,223.0076,-11.7023,41.9847
0.8296,-0.1462,-0.6873,222.8931,-14.3511,49.7634
0.8506,-0.1499,-0.6914,223.3969,-16.1374,58.0382
0.854,-0.1602,-0.7061,223.7557,-17.2061,66.542
0.885,-0.1748,-0.7053,224.6488,-17.4198,75.145
0.9138,-0.1863,-0.7034,225.8168,-16.8244,84.2061
0.9463,-0.1963,-0.7095,227.4351,-16.0382,92.5573
0.9805,-0.2144,-0.7166,229.1145,-14.1221,100.9313
1.0273,-0.2334,-0.7266,231.2214,-11.4809,108.7099
1.0747,-0.2532,-0.7344,233.458,-8.7863,116.1908
1.1333,-0.2822,-0.7441,236.0916,-5.4962,123.3282
1.1887,-0.3096,-0.7703,238.9771,-1.626,129.8855
1.2231,-0.3281,-0.7793,242.5649,2.2977,135.9924
1.2908,-0.3599,-0.8228,246.1527,6.3588,141.7252
1.3655,-0.3838,-0.8762,250.1298,10.7176,146.5954
1.4409,-0.3743,-0.9207,250.1298,15.4885,150.8855
1.5195,-0.3567,-0.9644,250.1298,20.8931,154.5954
1.5916,-0.3516,-1.0161,250.1298,26.7634,157.084
1.6587,-0.3364,-1.0828,250.1298,35.2061,158.9695
1.7251,-0.325,-1.1296,250.1298,42.4809,159.1298
1.769,-0.304,-1.1824,250.1298,49.7634,158.0458
1.8071,-0.2917,-1.2288,250.1298,58.2061,155.229
1.8474,-0.2605,-1.2568,250.1298,64.3511,151.0153
1.8765,-0.2292,-1.2827,250.1298,69.7405,146.3359
1.8931,-0.199,-1.3059,250.1298,74.7481,140.4886
1.8965,-0.1611,-1.3267,250.1298,79.2977,133.7557
1.9041,-0.1243,-1.345,250.1298,83.313,126.7863
1.8936,-0.104,-1.3489,250.1298,86.2672,120.0153
1.8826,-0.0583,-1.3555,248.0992,88.9084,111.3053
1.8591,-0.0154,-1.3706,241.8015,90.7634,103.3359
1.8428,0.0178,-1.3862,234.9618,92.0,95.4122
1.8076,0.0425,-1.3918,227.5573,92.6031,87.1908
1.7617,0.0664,-1.3984,219.3893,92.7786,79.2366
1.7104,0.1025,-1.385,210.4122,92.5343,71.8092
1.6602,0.135,-1.3811,201.4122,91.4275,64.2214
1.6089,0.1694,-1.3711,191.8779,89.7939,57.4656
1.5818,0.1794,-1.3696,181.8702,87.4504,51.1145
1.5156,0.2021,-1.355,171.8244,84.6947,45.2214
1.4468,0.2246,-1.3342,161.542,81.6412,40.1374
1.3857,0.2417,-1.3186,151.2977,78.145,35.5038
1.324,0.25,-1.2988,140.6031,74.0992,31.4351
1.248,0.259,-1.271,130.3664,69.6031,28.1985
1.187,0.2625,-1.2285,120.6489,64.8168,25.9466
1.1294,0.2622,-1.1958,110.3588,59.9008,24.5725
1.1067,0.2573,-1.1912,100.4504,54.5191,23.8015
1.0527,0.2581,-1.1436,91.5496,48.6412,24.0458
1.0229,0.2429,-1.106,82.7481,42.5344,25.2519
0.9949,0.2319,-1.0723,74.458,36.6947,26.8702
0.9556,0.2056,-1.04,67.1832,30.374,29.3435
0.9426,0.189,-1.0222,60.7863,25.6947,33.2824
0.9551,0.1709,-0.9961,54.9008,22.3053,37.6489
0.9409,0.1382,-0.9485,49.2214,19.1985,42.9466
0.9531,0.1245,-0.9333,44.1069,15.7176,47.6107
0.9678,0.1011,-0.9099,39.4046,13.3053,52.313
0.9824,0.071,-0.8877,35.2672,11.1832,56.9924
0.9968,0.0383,-0.8271,31.8168,8.0916,61.0229
1.0291,0.0203,-0.8044,28.7099,6.2061,65.0534
1.0686,-0.0005,-0.7944,26.0458,5.0382,68.5878
1.0996,-0.0305,-0.751,24.2443,3.9008,71.1374
1.1516,-0.0527,-0.7349,22.6489,1.9008,73.4046
1.1943,-0.0833,-0.72,21.8244,0.8702,75.1221
1.2278,-0.0923,-0.7124,21.6794,-0.5878,76.7252
1.2751,-0.1201,-0.7051,22.0534,-1.6031,77.5267
1.3342,-0.1267,-0.7141,23.1221,-1.3588,78.0153
1.3899,-0.1331,-0.7305,24.1221,-0.6794,77.9237
1.4409,-0.1409,-0.7219,25.626,0.2137,77.0076
1.4956,-0.1545,-0.7246,27.2901,1.0153,76.0153
1.5317,-0.1667,-0.731,28.7176,2.1527,73.8473
1.5723,-0.1741,-0.7542,29.9847,4.0382,71.1374
1.614,-0.1873,-0.7715,31.084,6.3282,67.6107
1.6201,-0.189,-0.7854,32.2672,8.6183,63.6031
1.6577,-0.1797,-0.7944,32.9924,11.0076,59.0687
1.6672,-0.1741,-0.7981,33.1527,13.8321,54.3969
1.6814,-0.1594,-0.8123,33.2824,17.1527,49.3053
1.6973,-0.1482,-0.8318,33.2366,20.9847,43.9084
1.689,-0.1287,-0.844,32.7252,26.145,37.0916
1.6755,-0.1152,-0.8608,32.0992,30.0763,31.9771
1.6675,-0.1028,-0.8601,31.0305,33.9237,27.1985
1.6365,-0.104,-0.8689,29.7023,37.5954,22.3435
1.6099,-0.0996,-0.8992,27.7252,40.5878,17.9771
1.5828,-0.0842,-0.907,25.6336,43.0916,14.3893
1.5562,-0.0657,-0.9258,22.6947,45.2595,11.1374
1.5273,-0.0413,-0.9421,19.374,47.542,8.1069
1.5183,-0.0383,-0.9543,15.6641,49.7939,5.4809
1.4897,-0.0237,-0.9495,11.3588,51.2824,2.9237
1.4624,-0.0156,-0.9548,6.2748,52.916,1.1832
1.4294,-0.0073,-0.9492,0.9924,53.9618,-0.6565
1.3931,0.0,-0.9392,-4.2824,54.1985,-2.229
1.363,-0.0015,-0.9385,-9.8092,53.9695,-3.6107
1.3401,-0.0044,-0.9187,-16.0153,53.3893,-4.9008
1.3071,-0.0059,-0.9058,-21.8931,52.2748,-6.1985
1.3025,-0.0068,-0.9133,-28.3359,50.8244,-7.2519
1.2676,-0.0164,-0.8843,-35.3053,48.8473,-8.3511
1.2517,-0.0166,-0.8689,-41.9924,46.7863,-9.3206
1.2297,-0.0168,-0.8416,-48.4046,44.8397,-9.855
1.2097,-0.0396,-0.8345,-54.5267,42.313,-10.5649
1.1929,-0.0547,-0.8098,-60.6031,39.771,-11.1069
1.1731,-0.0718,-0.7896,-66.313,37.4351,-11.5344
1.1589,-0.0916,-0.7681,-71.6031,34.6107,-12.1603
1.1365,-0.1106,-0.751,-76.7481,31.4427,-12.4885
1.1306,-0.1272,-0.729,-81.2519,27.7557,-12.9008
1.1104,-0.1506,-0.7092,-85.8168,23.3282,-13.1527
1.0938,-0.1719,-0.6794,-89.8397,18.5191,-13.6565
1.0793,-0.1946,-0.6514,-93.687,13.1527,-14.1603
1.0696,-0.2209,-0.6157,-97.2901,7.7786,-14.0992
1.0664,-0.2324,-0.6013,-100.6412,1.9542,-14.7557
1.0667,-0.2505,-0.5815,-103.855,-3.7634,-15.0229
1.0615,-0.2693,-0.5535,-106.9771,-9.4656,-15.145
1.0732,-0.2778,-0.5461,-109.5267,-14.7786,-15.3206
1.0596,-0.2913,-0.5281,-111.9542,-20.855,-15.5038
1.0828,-0.3035,-0.5132,-114.2901,-26.7023,-15.9237
1.0947,-0.3191,-0.5093,-116.0611,-32.0763,-15.7023
1.1067,-0.3457,-0.49,-117.7557,-36.6947,-15.8855
1.1367,-0.3574,-0.4963,-119.0229,-41.2214,-16.0305
1.1733,-0.3718,-0.502,-119.9618,-44.2443,-16.1679
1.2046,-0.3906,-0.5183,-120.5954,-45.6565,-15.9466
1.2334,-0.4048,-0.5266,-120.5725,-45.9618,-15.9466
1.2522,-0.4075,-0.5361,-120.855,-45.0458,-16.1603
1.2866,-0.4163,-0.5505,-120.1832,-42.7023,-16.1908
1.3108,-0.4211,-0.572,-119.3969,-39.3969,-15.8931
1.3467,-0.4285,-0.5876,-118.542,-35.1985,-15.9237
1.3684,-0.426,-0.6011,-117.4733,-30.3511,-16.1832
1.3894,-0.4348,-0.626,-116.3053,-24.6718,-15.9771
1.4006,-0.4417,-0.6323,-114.8473,-18.5878,-16.145
1.408,-0.4478,-0.6479,-113.4122,-12.5954,-16.5344
1.4043,-0.4487,-0.6443,-111.771,-7.0534,-16.7023
1.4033,-0.4526,-0.645,-110.1145,-0.8397,-17.2519
1.4053,-0.4541,-0.6577,-108.7328,4.687,-18.0611
1.3933,-0.4526,-0.6582,-107.6718,9.2519,-18.7099
1.3904,-0.449,-0.6523,-107.145,12.9771,-19.4809
1.3774,-0.45,-0.6519,-106.3969,16.7176,-20.1679
1.3647,-0.4519,-0.6575,-106.1298,19.8702,-21.4809
1.3462,-0.4546,-0.6609,-106.2061,22.0534,-22.6947
1.3293,-0.4573,-0.6582,-106.771,23.8015,-24.1756
1.3125,-0.4553,-0.6675,-107.7634,25.2672,-25.7252
1.2981,-0.4548,-0.6704,-108.8244,25.8702,-27.3817
1.2771,-0.4473,-0.6797,-109.9542,25.8855,-29.2214
1.272,-0.4441,-0.6946,-111.9466,25.6718,-30.9924
1.2627,-0.4458,-0.6934,-113.4046,25.2672,-32.5725
1.2527,-0.4343,-0.6963,-115.8244,24.8321,-34.3817
1.2471,-0.4204,-0.7175,-118.1069,24.0458,-35.9618
1.2405,-0.4087,-0.7087,-120.7023,23.5191,-37.2443
1.2463,-0.396,-0.7275,-123.1527,22.6489,-38.1756
1.2415,-0.3931,-0.7412,-126.0534,22.4275,-39.6794
1.2322,-0.3911,-0.7449,-129.1145,21.8244,-40.7023
1.2358,-0.3811,-0.7529,-132.4427,21.4656,-41.8626
1.2334,-0.3811,-0.7612,-135.8702,20.9466,-43.1679
1.2285,-0.3833,-0.7656,-140.0534,20.0534,-44.7405
1.2319,-0.3826,-0.771,-144.2214,19.5573,-45.7252
1.2249,-0.3755,-0.7773,-148.4809,18.5878,-47.1527
1.2231,-0.3672,-0.7722,-152.5725,17.8626,-48.2672
1.2166,-0.3633,-0.7734,-156.9771,16.7252,-49.6641
1.2202,-0.3601,-0.7639,-161.5878,15.9389,-51.1374
1.2161,-0.3501,-0.7639,-166.0916,14.6718,-52.4504
1.2004,-0.3469,-0.7542,-170.4809,13.2443,-54.1832
1.1968,-0.3418,-0.7444,-175.1069,11.3435,-55.3664
1.1921,-0.3362,-0.729,-179.9084,9.1298,-57.1298
1.1704,-0.3345,-0.7156,-184.9771,6.0534,-58.9008
1.1543,-0.3389,-0.6895,-189.5496,2.2443,-60.7405
1.1418,-0.3337,-0.666,-194.4504,-1.9618,-62.5878
1.127,-0.3384,-0.6521,-199.3512,-6.8244,-64.6412
1.1086,-0.3337,-0.6326,-204.0305,-11.9618,-66.4962
1.1008,-0.3291,-0.5974,-209.0305,-17.2824,-68.1603
1.0942,-0.3235,-0.5779,-213.8931,-22.7405,-69.8244
1.0938,-0.3196,-0.5569,-218.6641,-27.9618,-71.6565
1.0898,-0.3181,-0.5396,-223.4962,-33.0153,-73.2519
1.093,-0.3171,-0.519,-228.1298,-37.0305,-74.8092
1.1047,-0.3181,-0.4849,-232.7099,-40.7252,-76.4504
1.1077,-0.3105,-0.4707,-237.145,-42.7405,-77.8931
1.1201,-0.3123,-0.4478,-240.8397,-43.4733,-79.313
1.1353,-0.3162,-0.4316,-244.229,-42.7099,-80.2137
1.1431,-0.3252,-0.4001,-247.1527,-40.542,-81.0
1.1399,-0.3254,-0.3958,-249.6412,-37.3817,-82.2366
1.146,-0.3306,-0.3584,-250.1374,-32.7786,-82.8092
1.1438,-0.3491,-0.3291,-250.1374,-27.0992,-83.1832
1.134,-0.3542,-0.3044,-250.1374,-21.1069,-83.2061
1.1143,-0.3564,-0.2607,-250.1374,-14.3588,-83.4885
1.0996,-0.3579,-0.217,-250.1374,-8.1527,-83.2595
1.0823,-0.3662,-0.1704,-250.1374,-1.7557,-83.5191
1.0488,-0.3723,-0.1167,-250.1374,4.6336,-83.4885
1.0132,-0.374,-0.0686,-249.8321,11.8626,-83.458
0.9746,-0.3777,-0.0093,-248.5649,17.4656,-82.9313
0.9346,-0.3896,0.0356,-246.3969,22.3282,-82.9313
0.8884,-0.3955,0.0828,-244.4122,26.4427,-82.6031
0.8586,-0.4004,0.1067,-242.4046,30.0763,-82.0687
0.8228,-0.4163,0.1558,-240.0992,33.0305,-81.5954
0.7671,-0.4207,0.2197,-238.1985,34.8473,-81.2901
0.731,-0.4253,0.2856,-235.6641,35.5344,-81.0687
0.6912,-0.4263,0.3469,-233.6947,35.6031,-80.2977
0.6467,-0.4163,0.4036,-231.4504,34.0916,-79.6947
0.6162,-0.4053,0.4666,-229.3588,31.6107,-78.9237
0.5735,-0.4004,0.5364,-227.2061,27.8779,-78.0458
0.5542,-0.3994,0.5706,-225.1221,23.2748,-77.1145
0.5295,-0.3757,0.6284,-223.0687,17.9008,-76.2366
0.5181,-0.3579,0.6951,-220.7099,11.9008,-75.1298
0.4951,-0.3242,0.751,-218.4733,5.4733,-74.0611
0.4871,-0.3057,0.8245,-216.1221,-1.084,-72.6183
0.4744,-0.2866,0.8677,-213.3969,-8.4809,-71.1679
0.4724,-0.2612,0.9192,-210.8473,-15.9008,-69.6565
0.4758,-0.25,0.9678,-208.0916,-23.3969,-68.0611
0.4819,-0.2378,0.9875,-204.8092,-31.1298,-66.0
0.489,-0.2241,1.019,-201.8397,-38.687,-64.145
0.4985,-0.2129,1.0396,-198.5496,-46.0229,-62.2443
0.5156,-0.2046,1.0579,-194.5191,-53.2366,-59.7099
0.5364,-0.1997,1.0742,-190.916,-59.1527,-57.8321
0.553,-0.2043,1.0825,-186.6794,-63.916,-55.8779
0.5891,-0.2014,1.0857,-182.5114,-67.5725,-53.5878
0.6255,-0.1946,1.0857,-178.1985,-69.5115,-50.6336
0.6467,-0.1938,1.0818,-173.7481,-69.6718,-48.0687
0.6858,-0.188,1.0698,-168.4275,-67.687,-44.9542
0.7231,-0.1936,1.0627,-163.3969,-63.7786,-41.084
0.7642,-0.1934,1.0508,-157.8015,-57.9771,-37.3969
0.7986,-0.1931,1.0549,-152.1679,-51.1069,-33.229
0.8369,-0.1956,1.0427,-146.2214,-43.0153,-28.3817
0.8667,-0.189,1.0503,-140.2901,-34.2443,-24.1221
0.8848,-0.1934,1.0574,-134.0916,-25.3664,-18.5725
0.9158,-0.1963,1.0559,-127.4351,-16.8244,-13.0382
0.9287,-0.21,1.054,-120.5343,-8.1145,-7.7863
0.9443,-0.229,1.0608,-113.5038,-0.0534,-2.4198
0.9624,-0.2307,1.0591,-106.0229,7.2214,2.542
0.9741,-0.2385,1.0647,-98.4198,13.4809,7.3206
0.9749,-0.2454,1.054,-90.6031,19.0076,11.6489
0.9937,-0.2488,1.0737,-83.0153,23.7099,15.2595
0.9993,-0.2598,1.0693,-75.626,27.5191,18.6031
1.0134,-0.2617,1.0632,-68.5954,30.6183,21.0916
1.0186,-0.2622,1.061,-61.7099,32.5344,22.855
1.0286,-0.2532,1.0532,-55.1985,34.0916,24.1603
1.0466,-0.2532,1.0459,-49.1908,35.0763,24.6489
1.0552,-0.252,1.019,-43.313,35.0229,24.5954
1.0635,-0.2498,1.0176,-38.0763,34.3435,24.1374
1.0762,-0.248,0.9961,-33.5038,33.1908,22.6718
1.0823,-0.2412,0.9873,-29.4275,31.229,21.0763
1.0796,-0.2334,0.9653,-26.084,29.0,18.9771
1.0854,-0.2256,0.9421,-22.7557,26.5267,16.3053
1.0925,-0.218,0.9297,-19.0534,22.7023,13.084
1.0854,-0.2043,0.907,-16.7405,19.4198,10.4351
1.0872,-0.1941,0.8721,-14.4809,15.4504,7.4122
1.0828,-0.186,0.8574,-12.4962,12.1298,4.8779
1.084,-0.187,0.8328,-10.6031,8.145,2.1985
1.0818,-0.1765,0.8052,-8.855,4.2137,-0.2214
1.0757,-0.1667,0.781,-7.313,0.8168,-2.3435
1.0708,-0.155,0.752,-5.7328,-2.6489,-4.1908
1.0574,-0.1526,0.7141,-4.4809,-5.9618,-5.7863
1.0559,-0.1458,0.679,-3.0916,-8.916,-7.0916
1.0459,-0.1289,0.6497,-1.9618,-11.6031,-7.8473
1.051,-0.1292,0.6379,-1.0,-13.8473,-8.4656
1.0493,-0.1199,0.6089,-0.0305,-15.7099,-8.5725
1.0569,-0.127,0.5869,0.7939,-16.7328,-8.2672
1.0474,-0.1211,0.5486,1.7634,-17.1221,-7.6031
1.0605,-0.1147,0.5266,2.9313,-17.1069,-6.5802
1.0696,-0.1074,0.511,3.7939,-16.7328,-5.6107
1.0684,-0.1016,0.4944,5.2595,-15.7939,-4.0916
1.0813,-0.1033,0.4805,6.3588,-14.5573,-2.4351
1.083,-0.094,0.4624,7.7405,-13.2824,-1.145
1.0923,-0.0911,0.4717,9.3206,-11.7634,0.9924
1.1038,-0.0774,0.4609,10.8321,-9.9084,2.7557
1.1072,-0.0769,0.4524,12.3206,-7.3893,4.626
1.1201,-0.0564,0.437,14.0916,-5.1069,6.5344
1.1343,-0.0522,0.4312,15.9008,-2.3359,8.0458
1.1472,-0.053,0.4167,18.1832,0.2519,9.5115
1.1572,-0.0654,0.405,19.626,2.8779,11.0763
1.1633,-0.0591,0.3911,21.5267,5.5344,12.0611
1.1675,-0.0691,0.3906,23.1908,7.9542,13.0153
1.1726,-0.0635,0.3843,24.7328,10.3664,13.1832
1.176,-0.0649,0.3633,26.4504,12.4122,13.626
1.1843,-0.0593,0.3428,28.0,14.4122,13.5954
1.1917,-0.0613,0.3389,29.2214,16.626,13.2366
1.1936,-0.061,0.3193,30.542,18.5725,13.3282
1.1956,-0.052,0.3025,32.0153,20.8244,12.6107
1.1956,-0.0598,0.2871,33.2824,22.9542,11.4275
1.1943,-0.0586,0.2761,34.2977,24.8092,10.7557
1.1931,-0.0574,0.261,35.1908,26.8931,9.7481
1.1885,-0.0562,0.2432,36.0382,28.5344,8.6183
1.1736,-0.0525,0.2412,36.5954,29.855,7.4885
1.1501,-0.0515,0.2205,37.1985,30.2366,6.2824
1.1338,-0.053,0.2214,37.2901,30.0992,4.8397
1.1018,-0.0525,0.2095,37.2977,29.1374,3.5115
1.0891,-0.0466,0.2004,37.1908,27.4122,2.1374
1.0781,-0.0513,0.2026,36.7176,25.0763,0.7634
1.0532,-0.0442,0.208,36.0076,21.626,-0.9466
1.0325,-0.0303,0.2039,35.2977,17.8244,-2.2901
1.011,-0.0278,0.2053,34.6336,13.9542,-3.7939
0.9988,-0.0249,0.189,33.6107,9.5267,-5.2672
0.9741,-0.0242,0.1917,32.8855,5.0611,-6.9008
0.9658,-0.0215,0.1733,31.9313,0.8855,-8.0076
0.9456,-0.0171,0.1643,30.9695,-3.0916,-9.3511
0.9429,-0.0225,0.1504,30.1069,-7.5573,-10.4427
0.9329,-0.0208,0.1428,29.6412,-11.5954,-11.313
0.9285,-0.011,0.1394,29.0458,-14.9847,-11.8244
0.9136,-0.0088,0.124,28.4427,-19.0763,-12.6794
0.9138,-0.0129,0.1179,28.1374,-22.1603,-12.771
0.9202,-0.011,0.0994,28.1069,-25.4046,-12.6565
0.9177,-0.0154,0.1033,28.1374,-27.9237,-12.5191
0.9192,-0.0151,0.0771,28.2366,-29.9466,-12.0687
0.9243,-0.011,0.0649,28.6565,-31.9924,-11.2595
0.9333,-0.0139,0.0571,29.2061,-33.1374,-10.4962
0.9509,-0.0142,0.0466,30.084,-33.7634,-9.5954
0.9539,-0.0161,0.0242,30.8779,-33.9542,-8.4427
0.9746,-0.0168,0.0059,31.7099,-33.8931,-7.3588
0.9824,-0.0156,0.0037,32.9924,-33.0229,-6.0534
0.9919,-0.0129,-0.0203,33.9084,-32.2824,-4.626
1.0046,-0.012,-0.0261,34.8702,-30.7023,-3.7863
1.0229,-0.0127,-0.0417,36.1069,-29.0687,-2.3969
1.0432,-0.0046,-0.0635,37.1756,-26.7023,-1.0229
1.0437,-0.0029,-0.0806,38.1908,-24.0992,0.2672
1.0615,-0.0051,-0.1013,38.9924,-21.1221,1.458
1.0786,0.0029,-0.1077,39.916,-17.8702,2.8779
1.0828,0.0005,-0.1162,40.5573,-14.2748,4.0611
1.0886,0.0061,-0.1353,41.2443,-11.145,5.3206
1.103,0.0078,-0.1399,41.8015,-7.8855,6.687
1.1064,0.0071,-0.1338,42.313,-4.7252,7.5878
1.1064,0.0098,-0.1494,42.6718,-1.9237,8.3282
1.1111,0.0146,-0.1599,43.0305,0.2901,9.2061
1.1179,0.0183,-0.167,43.4046,2.5115,10.0229
1.1174,0.0208,-0.1721,43.3359,4.229,10.5191
1.1138,0.0264,-0.1738,42.8779,5.2977,10.8168
1.1167,0.0349,-0.1792,42.5954,6.4275,11.0611
1.1194,0.0364,-0.1934,42.0992,7.4504,11.0534
1.1133,0.0396,-0.2012,41.1908,7.6641,10.6183
1.1191,0.0464,-0.1938,40.1756,7.7557,10.2672
1.1125,0.0474,-0.1973,38.8855,7.9008,9.7099
1.113,0.0503,-0.2083,37.4809,7.6641,8.9084
1.1074,0.054,-0.2166,35.855,7.1908,8.5191
1.1123,0.0508,-0.2109,34.0229,6.626,7.4809
1.1096,0.0483,-0.2129,32.2137,6.145,6.6107
1.1074,0.0557,-0.2107,30.3664,5.5267,5.6718
1.1096,0.061,-0.22,28.1069,4.7863,5.0229
1.1047,0.0671,-0.218,26.313,4.4885,4.0687
1.1077,0.0615,-0.2112,24.1221,4.0763,3.1374
1.0945,0.0586,-0.2148,22.0382,3.1603,2.2595
1.0928,0.052,-0.2014,20.1298,2.7099,1.1908
1.0945,0.0515,-0.1985,18.0382,1.8244,0.458
1.0906,0.0427,-0.1963,16.1527,0.7252,-0.2137
1.084,0.0308,-0.1846,14.5267,-0.3282,-1.0229
1.0784,0.0278,-0.188,12.7634,-1.4351,-1.4504
1.0723,0.0222,-0.1697,11.145,-2.4962,-2.1221
1.0735,0.0134,-0.155,10.1221,-3.626,-2.8702
1.063,0.0112,-0.1584,8.6947,-4.6565,-3.2595
1.0579,0.0093,-0.1406,7.8092,-5.5649,-3.8473
1.0559,0.0051,-0.1313,7.4122,-6.458,-4.4962
1.0591,0.0007,-0.1199,6.8855,-7.4122,-4.5267
1.0562,-0.0037,-0.1206,6.7481,-8.1756,-5.145
1.051,-0.0127,-0.0955,6.6183,-8.8168,-5.3664
1.0559,-0.0242,-0.1025,7.1527,-9.3588,-5.6565
1.0571,-0.0312,-0.1001,7.5649,-9.8779,-5.6031
1.052,-0.0327,-0.0835,8.0382,-10.1298,-5.7328
1.0535,-0.0439,-0.0898,8.9542,-9.771,-5.7405
1.0605,-0.0471,-0.0835,9.4809,-9.3969,-5.3969
1.0615,-0.0486,-0.0852,10.4198,-8.6947,-5.0305
1.0674,-0.0469,-0.0798,11.6489,-7.2901,-4.5802
1.0769,-0.0432,-0.0801,12.6489,-5.5573,-3.8244
1.083,-0.0422,-0.0864,13.8931,-3.6412,-3.0687
1.0847,-0.0461,-0.0762,14.9847,-1.6718,-2.1145
1.0923,-0.0388,-0.083,16.7099,0.8015,-0.9542
1.0952,-0.0361,-0.0876,18.2519,3.2214,0.5725
1.0962,-0.0359,-0.095,19.9084,5.7405,1.7481
1.1028,-0.0339,-0.1096,21.4809,8.2595,2.8779
1.0994,-0.0325,-0.0962,22.8473,10.4656,3.9847
1.1089,-0.0322,-0.1074,24.1069,12.5496,5.1756
1.1167,-0.0286,-0.1016,25.3817,14.4427,6.0916
1.115,-0.0234,-0.1089,26.1298,16.0382,6.9389
1.123,-0.0203,-0.1147,26.9618,17.3435,7.9618
1.1194,-0.0139,-0.1343,27.4122,18.7176,8.6794
1.1216,-0.0083,-0.1299,27.6031,20.0,8.8168
1.1265,-0.0059,-0.1331,27.6718,20.7557,9.0153
1.1289,-0.002,-0.1392,27.2901,21.2672,8.9924
1.1309,0.0012,-0.1428,26.5649,21.8855,8.9466
1.1292,0.0051,-0.135,25.8855,22.0458,8.3511
1.1289,0.0093,-0.1355,25.0763,21.9542,7.9084
1.1304,0.0083,-0.1406,23.6565,21.4046,7.0076
1.1267,0.011,-0.1323,22.4656,20.8168,6.3053
1.1216,0.0083,-0.1387,21.2443,19.8779,5.4198
1.1125,0.011,-0.1321,19.6412,18.6031,4.1679
1.1199,0.0088,-0.1328,17.9237,17.0382,3.2061
1.1179,0.0085,-0.1252,16.2137,15.1069,2.4198
1.1108,0.0112,-0.1199,14.6565,13.4809,0.9924
1.1057,0.0178,-0.1138,13.0534,11.6031,-0.1832
1.1023,0.0171,-0.1165,11.5725,9.8779,-1.2977
1.1035,0.0234,-0.1111,9.771,8.2366,-2.5573
1.1025,0.0215,-0.0979,8.3511,6.6183,-3.7863
1.0918,0.0229,-0.0972,6.7099,4.7176,-5.3817
1.0935,0.0146,-0.0881,5.0076,3.2901,-6.771
1.0811,0.0059,-0.082,3.3664,2.1527,-8.0534
1.0801,-0.0042,-0.0757,2.0458,0.9847,-9.2366
1.0725,-0.0071,-0.0637,0.8702,-0.0992,-10.2366
1.0715,-0.0037,-0.0642,0.0153,-1.2366,-11.1221
1.0601,-0.0039,-0.0566,-0.626,-1.8855,-11.5802
1.0508,-0.0186,-0.0505,-1.0611,-2.9313,-12.0611
1.0408,-0.0239,-0.0342,-1.1756,-3.6718,-12.2672
1.0361,-0.0227,-0.0173,-0.9695,-4.4962,-12.3435
1.0281,-0.0232,-0.0093,-0.6947,-5.4427,-12.229
1.0161,-0.0376,0.0029,-0.1527,-6.0687,-12.0
1.0151,-0.0352,0.0039,0.229,-7.0992,-11.6412
1.0117,-0.0449,0.0186,1.229,-7.6641,-11.1679
1.01,-0.0466,0.0159,1.9008,-7.9389,-10.5496
1.0085,-0.0496,0.0215,2.8931,-7.855,-10.2214
1.0044,-0.0486,0.0239,4.0153,-8.1603,-9.4122
