ax,ay,az,gx,gy,gz
1.488,-0.1091,-0.0334,5.1832,-20.8626,38.7634
1.5349,-0.1221,-0.032,7.5038,-17.6031,38.9542
1.5747,-0.1267,-0.04,10.084,-14.771,38.3664
1.6143,-0.1355,-0.0535,12.5115,-11.4733,37.3206
1.6372,-0.1372,-0.0649,15.0458,-8.4122,35.9924
1.6821,-0.144,-0.0642,17.7557,-5.8931,34.3817
1.7266,-0.1431,-0.0757,20.1145,-4.2672,32.1374
1.7617,-0.1326,-0.0864,22.6565,-2.687,29.2901
1.7942,-0.134,-0.0937,24.8015,-1.2137,26.0916
1.8442,-0.134,-0.0991,26.916,-1.1298,22.0153
1.8755,-0.1433,-0.1179,28.6718,-1.5267,17.2366
1.9207,-0.1372,-0.1477,30.1298,-2.6183,12.7481
1.9402,-0.1353,-0.1504,31.2901,-4.855,7.3359
1.9797,-0.137,-0.1697,31.9924,-7.4351,1.4962
1.9999,-0.1255,-0.199,32.1908,-10.8397,-4.3282
1.9999,-0.1233,-0.2288,32.0763,-14.8702,-10.5725
1.9999,-0.1084,-0.2615,31.3206,-18.6107,-17.5038
1.9999,-0.1045,-0.2937,29.9313,-22.8321,-24.0763
1.9999,-0.0947,-0.3315,27.8397,-26.7252,-31.542
1.9999,-0.0884,-0.3489,24.7176,-31.2366,-40.0229
1.9999,-0.0891,-0.3616,21.1908,-35.229,-47.5344
1.9999,-0.0774,-0.3721,16.5114,-39.542,-56.7023
1.9999,-0.0671,-0.3789,11.5725,-43.6565,-65.6718
1.9999,-0.0703,-0.3826,5.7328,-47.3893,-74.9847
1.9999,-0.0649,-0.3955,-0.1985,-50.5267,-84.6336
1.9999,-0.0664,-0.4082,-6.2061,-52.5038,-94.0611
1.9999,-0.0796,-0.4216,-12.5038,-53.2519,-104.374
1.9999,-0.093,-0.4375,-18.771,-53.0763,-115.0382
1.9999,-0.0999,-0.4438,-24.7557,-51.6412,-124.5267
1.9999,-0.1226,-0.4312,-31.1832,-49.084,-135.7176
1.9999,-0.1445,-0.4216,-36.7481,-46.0992,-145.8626
1.9999,-0.1565,-0.405,-42.3511,-42.3969,-155.5954
1.9999,-0.1672,-0.3787,-47.229,-38.084,-165.0229
1.9999,-0.1819,-0.3481,-51.6107,-33.6565,-173.2214
1.9999,-0.1843,-0.2937,-55.0534,-29.4427,-180.8473
1.9999,-0.1931,-0.2354,-57.9695,-25.8092,-187.8855
1.9999,-0.2009,-0.175,-60.0763,-23.2672,-193.6947
1.9999,-0.2087,-0.126,-61.6794,-20.9924,-199.1069
1.9999,-0.2273,-0.0723,-62.687,-19.855,-203.1832
1.9999,-0.2429,-0.0137,-63.3282,-18.916,-206.8931
1.9999,-0.2622,0.0522,-63.0382,-18.1145,-210.4275
1.9999,-0.2725,0.1016,-62.1145,-17.8397,-213.8168
1.9999,-0.2913,0.1494,-60.5573,-17.8168,-216.8092
1.9999,-0.3066,0.1802,-58.4275,-17.7176,-219.5114
1.9999,-0.3318,0.2192,-55.3893,-18.1908,-222.7939
1.9999,-0.3335,0.2383,-51.9008,-18.8168,-226.3588
1.9999,-0.3452,0.2659,-47.1679,-19.4351,-230.0916
1.9999,-0.3645,0.2834,-42.7939,-20.3588,-233.9237
1.9999,-0.3799,0.302,-37.7939,-21.1145,-238.1374
1.9999,-0.3845,0.2993,-32.7786,-21.5573,-242.7099
1.9999,-0.3911,0.291,-27.5496,-21.3817,-247.5573
1.9999,-0.3926,0.2717,-22.2824,-19.3588,-250.1374
1.9999,-0.4094,0.2629,-17.7863,-17.0992,-250.1374
1.9999,-0.4194,0.2417,-13.458,-14.7023,-250.1374
1.9999,-0.4263,0.2104,-9.5496,-11.1985,-250.1374
1.9999,-0.4236,0.1973,-6.2214,-7.4351,-250.1374
1.9999,-0.4268,0.1648,-3.2061,-3.1527,-250.1374
1.9999,-0.4407,0.136,-0.5878,0.7863,-250.1374
1.9999,-0.458,0.1152,1.1985,4.2214,-250.1374
1.9999,-0.4724,0.0864,2.7634,6.9924,-250.1374
1.9999,-0.4822,0.0764,4.0534,9.2595,-250.1374
1.9999,-0.49,0.0701,4.6107,10.5802,-250.1374
1.9999,-0.4951,0.0579,4.5267,11.4885,-250.1374
1.9999,-0.4956,0.043,4.4122,12.084,-250.1374
1.9999,-0.4949,0.0322,4.0,12.2214,-250.1374
1.9999,-0.4958,0.0317,3.5115,11.9847,-250.1374
1.9999,-0.5029,0.0183,2.8092,11.7863,-250.1374
1.9999,-0.5046,0.0012,1.687,11.5191,-250.1374
1.9999,-0.5059,-0.0037,0.9542,11.4198,-250.1374
1.9999,-0.5,-0.0063,0.0763,11.2519,-250.1374
1.9999,-0.4944,-0.0291,-1.1603,11.2137,-250.1374
1.9999,-0.4976,-0.0413,-2.2519,12.0458,-250.1374
1.9999,-0.4993,-0.0574,-3.6107,13.2748,-250.1374
1.9999,-0.4966,-0.0579,-5.2595,15.0382,-250.1374
1.9504,-0.4998,-0.0542,-6.8473,17.1298,-250.1374
1.9214,-0.502,-0.0503,-8.6565,19.7634,-250.1374
1.8508,-0.5007,-0.0479,-10.0763,22.2748,-250.1374
1.7749,-0.4893,-0.0359,-11.8244,25.1221,-250.1374
1.6938,-0.4905,-0.0212,-13.1603,27.9466,-250.1374
1.6079,-0.4927,-0.001,-14.0,30.084,-250.1374
1.5293,-0.4878,0.0039,-14.7863,32.3359,-250.1374
1.4485,-0.4856,0.0281,-14.7481,33.8931,-250.1374
1.374,-0.4834,0.0483,-14.9313,34.3664,-250.1374
1.3496,-0.4841,0.0503,-14.4198,33.4885,-250.1374
1.2925,-0.4771,0.063,-13.5344,31.3359,-250.1374
1.2385,-0.4731,0.0745,-12.1832,27.8015,-250.1374
1.1987,-0.4817,0.0876,-10.6947,23.6641,-250.1374
1.1731,-0.4722,0.0957,-9.0,18.8015,-250.1374
1.1458,-0.4763,0.0903,-7.0076,14.1069,-250.1374
1.1362,-0.4746,0.0986,-5.4733,10.084,-250.1374
1.1289,-0.4631,0.0854,-3.6489,7.1756,-250.1374
1.1292,-0.4607,0.0867,-2.1679,5.3053,-250.1374
1.1406,-0.4514,0.0532,-0.9695,4.3053,-250.1374
1.1523,-0.4529,0.042,0.7786,4.5725,-250.1374
1.1775,-0.4558,0.0037,2.4427,5.542,-250.1374
1.1931,-0.4578,-0.0312,3.9695,7.1298,-250.1374
1.218,-0.478,-0.075,5.3206,9.9695,-250.1374
1.2302,-0.4863,-0.1213,6.916,14.4122,-250.1374
1.2268,-0.4812,-0.1665,8.0076,20.8855,-250.1374
1.2244,-0.4761,-0.1934,8.7634,28.8473,-250.1374
1.2183,-0.4666,-0.2075,9.6107,38.2748,-250.1374
1.1943,-0.4546,-0.2256,10.4198,47.8473,-250.1374
1.1685,-0.4475,-0.2148,10.8779,57.2519,-250.1374
1.1257,-0.4417,-0.2268,11.1756,66.8855,-250.1374
1.0713,-0.4421,-0.2468,11.5878,77.1527,-250.1374
1.0095,-0.4421,-0.2554,12.2519,87.1832,-250.1374
0.9421,-0.4373,-0.2478,13.4275,96.9084,-250.1374
0.8594,-0.438,-0.2507,14.6718,104.771,-250.1374
0.811,-0.439,-0.2388,16.4886,110.8931,-250.1374
0.7324,-0.4475,-0.218,18.4733,116.458,-250.1374
0.6282,-0.437,-0.1665,20.4046,120.145,-250.1374
0.5264,-0.4248,-0.1321,23.0916,122.3359,-250.1374
0.4377,-0.4082,-0.0947,25.7557,123.0229,-250.1374
0.3435,-0.3887,-0.0691,28.8168,122.5725,-250.1374
0.2439,-0.3726,-0.0405,32.7939,120.0305,-250.1374
0.1487,-0.3687,-0.0181,36.2443,116.3969,-250.1374
0.0557,-0.3472,0.0168,39.7099,111.626,-250.1374
-0.0361,-0.3279,0.0312,43.8626,105.229,-250.1374
-0.1145,-0.3,0.05,47.5344,97.855,-250.1374
-0.1868,-0.2817,0.0605,52.0382,89.5573,-250.1374
-0.209,-0.2651,0.0767,56.4962,79.0076,-250.1374
-0.2639,-0.2432,0.0923,61.0687,68.2901,-250.1374
-0.3179,-0.2231,0.0662,65.7176,57.6183,-250.1374
-0.3591,-0.189,0.051,70.2214,46.9237,-250.1374
-0.4172,-0.1372,0.0522,73.9008,35.4733,-250.1374
-0.4131,-0.1208,-0.0283,77.4198,24.8092,-250.1374
-0.4514,-0.1172,-0.0803,81.0611,16.2137,-250.1374
-0.4824,-0.1138,-0.1472,84.6489,10.4427,-250.1374
-0.4924,-0.1052,-0.1648,87.4046,7.5649,-250.1374
-0.5161,-0.0686,-0.1873,90.1603,5.5344,-250.1374
-0.5574,-0.0349,-0.1953,92.3588,3.855,-250.1374
-0.5774,0.0193,-0.2092,94.374,2.5954,-250.1374
-0.5991,0.0645,-0.2207,95.9389,0.9847,-250.1374
-0.6116,0.0962,-0.2297,97.313,-1.9771,-250.1374
-0.6257,0.1272,-0.2666,98.1374,-4.1832,-250.1374
-0.6394,0.1421,-0.304,98.8473,-5.9084,-250.1374
-0.6484,0.1465,-0.3184,99.0153,-7.4656,-250.1374
-0.6487,0.1418,-0.3511,98.4733,-7.5496,-250.1374
-0.676,0.1624,-0.3958,97.5573,-5.2977,-250.1374
-0.7017,0.1846,-0.4158,96.2519,-2.0611,-250.1374
-0.7283,0.2124,-0.4607,94.9237,2.2366,-250.1374
-0.7615,0.2258,-0.4775,93.5573,7.0076,-250.1374
-0.7942,0.2446,-0.4968,91.9847,11.6641,-250.1374
-0.8401,0.2664,-0.4768,89.7863,16.6336,-250.1374
-0.8777,0.2878,-0.4861,87.5878,21.2748,-250.1374
-0.8965,0.2996,-0.4873,85.626,25.313,-250.1374
-0.938,0.311,-0.4802,83.3282,28.8931,-250.1374
-0.97,0.3228,-0.4753,81.1756,30.6947,-250.1374
-1.0059,0.3267,-0.4658,79.1527,31.4886,-250.1374
-1.0354,0.3301,-0.4626,77.2137,30.5573,-250.1374
-1.0613,0.3281,-0.4656,75.4885,29.0153,-250.1374
-1.0835,0.323,-0.4731,73.5267,26.7786,-250.1374
-1.1035,0.3225,-0.4697,71.5115,23.7481,-250.1374
-1.126,0.3271,-0.4651,69.8779,20.4351,-250.1374
-1.1289,0.3301,-0.4771,67.8092,17.0916,-241.3282
-1.1477,0.3425,-0.4736,65.9542,13.3511,-232.1527
-1.1553,0.3606,-0.4648,64.5649,9.3969,-223.6794
-1.1721,0.3723,-0.4556,62.7557,5.771,-215.6107
-1.1819,0.3916,-0.4587,61.2366,2.1756,-207.0
-1.1919,0.3982,-0.4585,59.4046,-0.5115,-199.1756
-1.2029,0.4104,-0.4612,57.5573,-2.4733,-191.4886
-1.2087,0.4106,-0.469,55.8702,-4.0916,-183.9847
-1.2087,0.4109,-0.4651,54.0382,-5.5496,-176.4657
-1.2041,0.4089,-0.47,52.145,-6.5496,-168.9695
-1.21,0.4009,-0.4656,50.3664,-7.8397,-161.5114
-1.207,0.3889,-0.4692,48.4962,-10.2519,-153.542
-1.1912,0.3638,-0.4668,47.1221,-13.4809,-145.9237
-1.1794,0.3499,-0.458,45.7252,-17.0458,-138.3588
-1.165,0.3318,-0.4636,44.0382,-22.7252,-129.5038
-1.1475,0.3188,-0.4536,43.0076,-27.5878,-122.4809
-1.1272,0.3113,-0.4563,42.1756,-32.2137,-116.1527
-1.105,0.3069,-0.4482,41.5725,-36.6718,-110.3588
-1.0823,0.3015,-0.4343,40.9771,-41.0687,-105.5191
-1.0618,0.2986,-0.4446,40.4046,-44.5496,-100.9618
-1.0437,0.2917,-0.4414,39.8168,-47.458,-96.6107
-1.0264,0.2825,-0.4478,39.4809,-50.2672,-94.4809
-0.9998,0.2754,-0.4451,39.1374,-51.8779,-90.5496
-0.979,0.2729,-0.4468,38.7252,-52.8092,-86.458
-0.9614,0.2722,-0.4438,38.1069,-53.2061,-83.3282
-0.9438,0.2666,-0.4451,37.5267,-52.6031,-80.3893
-0.9331,0.2676,-0.448,36.8168,-51.0458,-77.3359
-0.9241,0.2637,-0.4497,35.9924,-48.9847,-74.084
-0.9194,0.2617,-0.4512,35.1679,-46.7176,-70.4122
-0.9197,0.259,-0.4561,33.8092,-44.458,-67.4885
-0.9128,0.2644,-0.4468,32.4809,-42.229,-63.7405
-0.9133,0.2625,-0.446,31.0382,-40.1298,-60.145
-0.9041,0.2698,-0.4353,29.5954,-38.4046,-56.374
-0.9106,0.2744,-0.4307,27.9847,-37.542,-52.771
-0.915,0.2788,-0.4275,26.6947,-36.8855,-49.0076
-0.925,0.2834,-0.4419,25.0763,-36.4885,-45.0687
-0.9221,0.2871,-0.4341,23.5344,-36.2214,-41.229
-0.9207,0.2915,-0.447,22.2595,-36.1221,-37.1679
-0.9294,0.2957,-0.4443,20.6183,-35.6489,-33.6641
-0.9304,0.3044,-0.4614,19.0916,-34.8931,-29.6183
-0.9338,0.3123,-0.4683,17.3969,-33.8168,-25.4504
-0.9373,0.3232,-0.4849,15.8015,-32.0687,-21.7328
-0.9363,0.3274,-0.4934,14.3435,-30.5038,-17.4122
-0.9482,0.3354,-0.5137,12.4656,-28.1679,-12.916
-0.9519,0.3503,-0.5217,10.5725,-25.3817,-8.2595
-0.9573,0.3552,-0.5295,8.771,-22.3969,-3.5496
-0.9668,0.3533,-0.5449,6.8473,-19.0,1.4809
-0.9817,0.3657,-0.5576,4.9466,-15.0382,6.9771
-1.0037,0.3657,-0.5647,2.7557,-10.9008,12.4962
-1.0171,0.3721,-0.5737,0.8855,-6.7176,18.3893
-1.0361,0.3901,-0.5764,-1.2977,-1.7557,25.3969
-1.0518,0.3958,-0.5798,-3.7252,3.1527,31.374
-1.0701,0.408,-0.5896,-5.9542,8.5038,38.2595
-1.0886,0.4058,-0.5811,-8.1985,13.3588,44.8855
-1.1064,0.4207,-0.5757,-10.8626,18.6412,52.1298
-1.127,0.4177,-0.5776,-13.0763,23.9389,59.5344
-1.1467,0.4265,-0.5723,-15.5649,29.0534,67.0916
-1.1738,0.4282,-0.5662,-18.0611,33.4885,75.0763
-1.1831,0.4275,-0.5496,-20.5725,37.9847,82.9466
-1.2002,0.4214,-0.5449,-23.0992,41.8244,90.8321
-1.2068,0.4219,-0.5195,-25.626,44.7939,99.0076
-1.2202,0.4204,-0.5181,-27.9313,47.0229,107.3435
-1.2258,0.4099,-0.5068,-30.7099,48.9237,114.9237
-1.2371,0.4106,-0.4912,-33.084,49.9542,123.2061
-1.24,0.396,-0.4705,-35.6183,50.1679,131.3053
-1.2405,0.3867,-0.4561,-38.0382,49.5573,138.7939
-1.2439,0.3806,-0.4429,-40.3359,48.7481,146.4886
-1.2329,0.3774,-0.429,-42.3817,46.855,154.374
-1.2234,0.3701,-0.3962,-44.5038,44.8321,161.6031
-1.2168,0.3513,-0.3811,-47.1298,41.3053,170.4275
-1.1995,0.3486,-0.3562,-49.1527,37.6107,178.7634
-1.1802,0.3425,-0.3281,-50.5954,34.5115,185.2748
-1.1743,0.3345,-0.3228,-52.1908,30.8855,192.3053
-1.1558,0.3225,-0.3059,-53.3282,27.8779,198.2748
-1.1323,0.3127,-0.2891,-54.2366,24.6718,204.0305
-1.1211,0.302,-0.283,-54.9542,21.9237,209.8702
-1.0996,0.2896,-0.2686,-55.3664,18.5267,216.1221
-1.0837,0.2839,-0.2578,-55.6947,15.3588,221.916
-1.0593,0.2686,-0.2485,-55.7786,11.8244,227.1756
-1.0525,0.2581,-0.2419,-55.7252,7.7557,232.5267
-1.0229,0.2439,-0.2053,-55.6489,1.8855,238.313
-1.0002,0.2393,-0.1987,-55.2672,-4.8855,243.4886
-0.9688,0.2312,-0.1938,-54.6107,-12.313,249.1298
-0.937,0.2166,-0.1709,-54.1603,-20.6031,250.1298
-0.9031,0.209,-0.1592,-52.9847,-29.3206,250.1298
-0.8623,0.2114,-0.1575,-51.7099,-38.6031,250.1298
-0.8186,0.2102,-0.1423,-50.1679,-47.9084,250.1298
-0.7927,0.2112,-0.1484,-48.313,-56.3435,250.1298
-0.7449,0.2095,-0.1362,-46.0305,-65.9924,250.1298
-0.6926,0.2092,-0.1509,-43.4962,-74.4198,250.1298
-0.6433,0.209,-0.1519,-40.9771,-82.4198,250.1298
-0.5757,0.2126,-0.1716,-38.5191,-89.5038,250.1298
-0.5234,0.2261,-0.199,-35.9237,-95.9389,250.1298
-0.4614,0.2324,-0.2202,-33.1374,-99.7939,250.1298
-0.4075,0.2488,-0.2444,-30.8702,-103.7634,250.1298
-0.3411,0.2581,-0.2798,-28.542,-104.8702,250.1298
-0.3206,0.2651,-0.2854,-26.6794,-104.3893,250.1298
-0.262,0.2793,-0.3174,-24.9618,-102.8473,250.1298
-0.2068,0.2974,-0.344,-23.2443,-99.6641,250.1298
-0.1587,0.3167,-0.384,-22.1908,-93.3664,250.1298
-0.1191,0.3379,-0.4146,-21.5344,-88.9389,250.1298
-0.0908,0.3618,-0.4514,-20.7557,-80.8931,250.1298
-0.0583,0.3811,-0.481,-21.0076,-71.7863,250.1298
-0.0481,0.4055,-0.5137,-21.5038,-61.8397,250.1298
-0.0361,0.4246,-0.5205,-22.2061,-52.6336,250.1298
-0.0193,0.4473,-0.5396,-23.8244,-41.6107,250.1298
-0.0254,0.4661,-0.5444,-25.8321,-31.0763,250.1298
-0.0334,0.4797,-0.5732,-28.4275,-20.5802,250.1298
-0.0415,0.4985,-0.5706,-31.4427,-10.313,250.1298
-0.0574,0.4983,-0.5813,-35.1069,-0.5191,250.1298
-0.0642,0.5105,-0.5776,-39.229,9.229,250.1298
-0.0803,0.5208,-0.5771,-43.7252,17.9695,250.1298
-0.0908,0.5183,-0.5771,-48.3282,26.626,250.1298
-0.1035,0.5198,-0.5715,-53.5344,34.6107,250.1298
-0.1213,0.5129,-0.5598,-58.6718,42.229,250.1298
-0.1353,0.5061,-0.5483,-64.1527,49.3588,250.1298
-0.1526,0.4883,-0.5251,-69.2061,56.3053,250.1298
-0.1809,0.4707,-0.5112,-74.4351,62.8473,250.1298
-0.1997,0.4614,-0.4788,-79.9084,68.6641,250.1298
-0.2195,0.4507,-0.4463,-84.4351,73.8168,250.1298
-0.2393,0.428,-0.4009,-89.1374,77.8168,250.1298
-0.2451,0.4153,-0.3792,-93.3969,80.3511,250.1298
-0.2664,0.3877,-0.3362,-97.687,81.3511,250.1298
-0.2817,0.3293,-0.2795,-102.0,80.1221,250.1298
-0.2761,0.2769,-0.2458,-105.6107,76.8702,250.1298
-0.2737,0.2605,-0.2253,-108.0763,72.374,250.1298
-0.2739,0.2112,-0.1758,-110.855,65.3588,250.1298
-0.2534,0.1636,-0.1296,-113.0382,56.4504,250.1298
-0.2192,0.1023,-0.083,-114.8168,45.6183,250.1298
-0.1785,0.0503,-0.0364,-116.5343,32.855,250.1298
-0.1292,-0.0073,-0.0005,-117.5878,18.8092,250.1298
-0.0627,-0.0618,0.0242,-118.1374,3.7176,250.1298
0.0076,-0.1121,0.0474,-118.2672,-11.0763,250.1298
0.0874,-0.1577,0.0579,-117.8779,-25.9924,250.1298
0.1326,-0.177,0.0596,-116.7328,-40.8473,250.1298
0.2251,-0.2285,0.061,-114.9542,-55.4046,250.1298
0.3293,-0.2798,0.0657,-112.8473,-69.4657,250.1298
0.4451,-0.3289,0.0671,-110.1298,-83.1069,250.1298
0.563,-0.3645,0.0557,-106.9771,-94.7405,250.1298
0.6914,-0.4055,0.0369,-103.2595,-106.6565,250.1298
0.8203,-0.4341,0.0217,-99.0305,-117.2443,250.1298
0.9421,-0.4624,0.0132,-94.6183,-127.0687,250.1298
1.01,-0.4771,0.0017,-89.8015,-135.6488,250.1298
1.1438,-0.5088,-0.0254,-85.2672,-142.855,250.1298
1.2742,-0.5349,-0.0515,-80.4351,-149.1908,250.1298
1.4009,-0.5544,-0.0737,-75.0992,-153.4886,250.1298
1.5215,-0.563,-0.123,-70.0916,-155.229,250.1298
1.6289,-0.5735,-0.1699,-64.4351,-154.1527,250.1298
1.7288,-0.5632,-0.1919,-59.7786,-150.5802,250.1298
1.8145,-0.553,-0.2161,-55.5954,-144.7786,250.1298
1.8538,-0.5408,-0.2314,-52.0229,-137.1908,250.1298
1.9224,-0.5122,-0.2275,-48.5954,-126.2595,250.1298
1.9731,-0.4763,-0.2246,-46.5954,-114.916,250.1298
1.9999,-0.4326,-0.2104,-44.9313,-102.145,250.1298
1.9999,-0.4009,-0.1704,-44.2519,-91.6183,250.1298
1.9999,-0.3623,-0.1343,-44.2061,-78.5649,250.1298
1.9999,-0.3354,-0.0674,-44.4656,-67.8855,250.1298
1.9999,-0.3171,-0.0183,-45.3588,-58.6412,250.1298
1.9817,-0.3093,0.043,-46.2672,-50.5802,250.1298
1.9741,-0.3057,0.0771,-47.374,-43.6489,250.1298
1.9431,-0.3042,0.1411,-48.1069,-37.4427,250.1298
1.9124,-0.3132,0.1997,-48.771,-32.1221,250.1298
1.885,-0.3176,0.2588,-48.9008,-27.0916,250.1298
1.8586,-0.325,0.3125,-48.1145,-22.2443,250.1298
1.8215,-0.3359,0.3594,-46.6412,-17.3893,250.1298
1.7815,-0.3364,0.4199,-43.9695,-13.5115,250.1298
1.761,-0.3535,0.4587,-40.6489,-10.458,250.1298
1.7512,-0.3616,0.4885,-36.5038,-7.8779,250.1298
1.7234,-0.3945,0.5305,-30.9847,-5.4656,250.1298
1.7092,-0.4231,0.5649,-25.4198,-3.4046,250.1298
1.686,-0.4502,0.5962,-18.9618,-1.8244,250.1298
1.6777,-0.4731,0.6326,-11.7939,-1.0382,250.1298
1.6633,-0.4834,0.6445,-4.1603,-1.1069,250.1298
1.6707,-0.4858,0.6665,4.2595,-2.3969,250.1298
1.6748,-0.5002,0.6843,12.7481,-5.2137,250.1298
1.7007,-0.5171,0.6951,21.8626,-8.9695,250.1298
1.717,-0.5293,0.6924,31.0076,-13.8626,250.1298
1.7837,-0.5376,0.6553,42.7786,-18.9771,250.1298
1.8438,-0.5347,0.605,53.4656,-22.626,250.1298
1.8772,-0.5249,0.5872,62.7634,-25.7939,250.1298
1.9446,-0.5134,0.5562,72.9542,-28.8779,250.1298
1.9999,-0.4956,0.4961,82.0611,-30.6412,250.1298
1.9999,-0.4719,0.4355,90.2672,-31.3588,250.1298
1.9999,-0.4526,0.3699,97.7405,-30.2443,250.1298
1.9999,-0.4434,0.3005,104.374,-27.8015,250.1298
1.9999,-0.4158,0.2329,110.1298,-24.4198,250.1298
1.9999,-0.3972,0.1594,115.1756,-20.2977,250.1298
1.9999,-0.3845,0.0952,117.2214,-15.6718,250.1298
1.9999,-0.3691,0.0583,120.6947,-11.1985,250.1298
1.9999,-0.3428,0.0,120.542,-6.8855,250.1298
1.9999,-0.3105,-0.0508,119.6031,-3.3969,240.2443
1.9999,-0.2778,-0.0757,119.2901,-1.0687,227.0076
1.9999,-0.2334,-0.1133,118.2061,0.5191,212.7481
1.9999,-0.1992,-0.1516,114.2672,0.7405,197.855
1.9999,-0.1611,-0.1724,110.1527,-0.6336,182.6183
1.9999,-0.1357,-0.1833,105.3817,-3.3359,165.8702
1.9999,-0.1165,-0.2068,100.4046,-6.2672,151.1374
1.9999,-0.0869,-0.2219,93.6412,-10.3359,134.3206
1.9999,-0.0566,-0.2273,87.2061,-14.8931,118.4427
1.9999,-0.0273,-0.25,80.2824,-20.0305,103.7557
1.9999,-0.0024,-0.2571,73.4275,-25.1374,89.5954
1.9999,0.0183,-0.27,66.0687,-30.7023,76.6107
1.9999,0.0359,-0.27,58.6565,-35.3969,65.0
1.9999,0.0562,-0.2798,51.7328,-40.3435,54.5649
1.9999,0.0681,-0.2832,45.7786,-44.7405,46.3435
1.9999,0.0903,-0.2893,38.916,-49.0229,38.1527
1.9999,0.1016,-0.2937,32.8473,-52.3969,31.8397
1.967,0.1079,-0.2847,27.5649,-55.229,26.9008
1.9077,0.1135,-0.2871,23.0534,-57.0076,23.3969
1.8516,0.1174,-0.293,18.9771,-58.1069,21.1603
1.7925,0.1138,-0.2781,14.9008,-58.229,19.687
1.7561,0.1172,-0.272,11.916,-57.5878,19.8779
1.7043,0.1091,-0.2512,9.2595,-55.9924,20.6641
1.6863,0.1104,-0.2498,6.855,-53.7405,22.5267
1.6492,0.1106,-0.2351,4.8779,-50.4275,25.229
1.6238,0.1135,-0.2168,3.5038,-45.8244,28.1908
1.5925,0.1086,-0.1951,2.8244,-41.1603,31.8397
1.5757,0.1023,-0.1731,2.5115,-35.3435,36.0687
1.552,0.1016,-0.1428,2.8626,-29.5878,40.1298
1.5408,0.0925,-0.1272,3.4885,-23.1679,44.2061
1.5229,0.0835,-0.1072,4.4962,-16.7481,47.8015
1.5232,0.0801,-0.0972,6.1374,-10.7252,51.6641
1.5146,0.0647,-0.0742,8.3588,-4.3359,54.9542
1.4978,0.0576,-0.0649,10.5802,1.3435,57.9389
1.4932,0.0388,-0.0525,13.3359,6.5802,60.3359
1.4878,0.0361,-0.0305,16.1374,10.6412,62.0534
1.4854,0.0251,-0.02,19.0,13.8321,63.7252
1.4844,0.0273,-0.0039,22.1908,16.0534,64.9847
1.4792,0.0261,0.0125,25.1832,17.0458,65.4657
1.4822,0.0261,0.0232,27.9542,16.9771,65.2977
1.4875,0.0247,0.0208,30.6565,15.6565,64.9542
1.5015,0.0322,0.0244,33.7557,13.2137,63.9695
1.5051,0.0366,0.0054,35.8855,10.3511,62.4962
1.5134,0.0371,-0.0063,37.8702,7.2748,60.7863
1.5325,0.0439,-0.0161,39.4733,4.2366,58.6336
1.5552,0.0408,-0.04,40.8015,1.4046,55.9847
1.5632,0.0439,-0.0837,41.916,-0.3359,53.0305
1.5828,0.052,-0.1108,42.5191,-1.6641,49.7023
1.5942,0.0588,-0.1375,43.0,-1.8931,46.2824
1.6082,0.0715,-0.1731,43.0076,-1.5191,42.6489
1.6145,0.0803,-0.1951,42.8473,-0.6718,38.6718
1.6108,0.0854,-0.2185,42.1298,0.8015,34.8702
1.6069,0.0894,-0.2307,41.3588,2.7786,31.2901
1.6077,0.1011,-0.2544,40.3893,4.6947,27.7863
1.5886,0.1089,-0.2717,39.0153,6.8092,24.4046
1.5811,0.1165,-0.281,37.5115,9.2214,21.1145
1.5593,0.1184,-0.304,35.9084,11.3664,18.1145
1.5354,0.1235,-0.2971,34.4046,13.5267,15.5649
1.5134,0.1328,-0.3086,32.5115,15.3893,13.1221
1.4919,0.1348,-0.3105,30.8779,17.313,11.2977
1.4768,0.1345,-0.3049,29.0611,19.2137,9.3053
1.4514,0.1409,-0.3066,27.4046,20.9542,7.458
1.4211,0.1465,-0.3066,25.9618,22.374,6.0611
1.3933,0.146,-0.3088,24.1908,23.9771,4.7099
1.3594,0.1479,-0.2927,22.6107,25.0382,3.4809
1.3372,0.1494,-0.2844,20.9771,25.5649,2.1756
1.3071,0.1465,-0.2722,19.6183,26.0687,1.0076
1.2839,0.1497,-0.2747,18.1985,25.8244,-0.2061
1.2681,0.1531,-0.2722,16.9924,25.7939,-1.2061
1.239,0.1511,-0.2612,15.7863,25.4733,-1.7863
1.2129,0.1497,-0.2578,14.7863,25.1756,-2.6489
1.1877,0.1577,-0.2639,13.5954,24.5649,-3.1374
1.158,0.1531,-0.2407,12.6031,23.8855,-3.7328
1.1367,0.1582,-0.2375,11.313,23.0916,-4.1221
1.116,0.1616,-0.2363,10.4122,22.1145,-4.3588
1.0867,0.1665,-0.219,9.4122,20.5649,-4.4046
1.0676,0.1616,-0.2144,8.4809,18.6718,-4.2366
1.0657,0.1577,-0.2085,7.1679,16.2214,-3.9008
1.0374,0.1665,-0.2002,6.1221,14.0153,-3.3435
1.0322,0.1567,-0.2046,5.1221,11.3359,-2.2595
1.019,0.1511,-0.2007,3.9924,8.5267,-1.6794
1.0112,0.1541,-0.1953,2.9466,5.6718,-0.5802
1.0107,0.1462,-0.187,1.687,2.8397,0.7328
1.0095,0.1501,-0.1934,0.7176,0.8397,2.4046
1.0132,0.1379,-0.1929,-0.1756,-1.2824,3.084
1.0183,0.1401,-0.1978,-0.9237,-2.7176,4.4733
1.0159,0.1223,-0.1897,-1.6718,-3.9466,5.7099
1.0173,0.1179,-0.1929,-2.2214,-4.5191,6.6489
1.0303,0.1123,-0.1782,-2.8092,-5.0305,7.855
1.0303,0.1052,-0.186,-3.2214,-5.5954,8.7863
1.0422,0.094,-0.1797,-3.7252,-5.7786,9.0153
1.0459,0.0864,-0.168,-3.6031,-5.7405,10.0763
1.0486,0.0762,-0.1545,-3.6641,-5.8244,10.8397
1.0571,0.073,-0.1475,-3.6718,-5.7634,11.2824
1.0637,0.0627,-0.1421,-2.9084,-5.7252,11.5115
1.0671,0.0605,-0.126,-2.4198,-5.4962,12.3053
1.0818,0.0459,-0.1282,-1.7328,-5.2824,12.3664
1.082,0.0396,-0.1213,-1.2519,-5.0916,12.5038
1.0894,0.0325,-0.1147,-0.3588,-4.7481,12.9389
1.0896,0.0229,-0.1077,0.7023,-4.1908,12.9771
1.0991,0.02,-0.0974,1.5344,-3.5954,13.2214
1.1052,0.0173,-0.0942,2.9466,-2.8779,13.2748
1.106,0.012,-0.0879,4.0916,-2.3282,13.4733
1.1187,0.0095,-0.0986,5.3053,-1.6947,13.1603
1.1169,0.0044,-0.0825,6.5649,-0.7405,13.2672
1.1169,0.0081,-0.0886,7.9466,-0.145,13.0992
1.1194,0.0029,-0.0906,9.1298,0.6183,12.6336
1.1252,-0.0005,-0.0962,10.1603,1.3435,12.2748
1.1184,0.0056,-0.0864,11.3053,2.3053,11.9542
1.134,-0.0017,-0.0867,12.4809,2.8397,11.2595
1.1274,0.0039,-0.0942,13.3817,3.5649,10.8015
1.126,0.0044,-0.1021,14.3893,4.1756,10.2137
1.1382,0.0139,-0.1016,15.1756,4.9542,9.6336
1.1394,0.0144,-0.1089,15.8931,5.3893,8.9618
1.1404,0.0256,-0.115,16.374,5.6031,8.145
1.1465,0.0254,-0.1104,16.9237,5.7405,7.2137
1.1636,0.0337,-0.1321,17.3893,5.855,6.3817
1.1687,0.0371,-0.1306,17.5954,6.1298,5.0916
1.1721,0.0476,-0.1558,17.7863,6.687,3.9771
1.1826,0.0479,-0.1687,17.5573,7.5267,2.6947
1.1958,0.0588,-0.1824,17.3969,8.9695,1.4885
1.1917,0.0625,-0.187,16.8855,10.7481,-0.229
1.1917,0.0674,-0.1995,16.4962,12.8321,-2.0
1.1936,0.0696,-0.1946,15.5496,15.0534,-3.5038
1.1899,0.0762,-0.2012,14.3282,17.2214,-5.084
1.1836,0.0808,-0.2068,13.0153,19.3969,-7.0992
1.1821,0.0952,-0.2126,11.9084,21.3893,-8.9008
1.1667,0.0891,-0.2036,10.3511,22.9771,-10.3588
1.1521,0.092,-0.1997,9.2214,24.1756,-11.9847
1.1389,0.0962,-0.1968,7.6641,25.4275,-13.5802
1.1304,0.0959,-0.1941,6.5802,26.2061,-14.4733
1.1055,0.0867,-0.2083,5.5496,26.4886,-15.5038
1.0854,0.0872,-0.2036,4.1756,26.313,-16.5725
1.0723,0.0864,-0.2,3.0763,26.2824,-16.9695
1.0513,0.0754,-0.1787,1.7405,25.6031,-17.687
1.0251,0.0847,-0.1919,0.6489,24.4656,-17.8626
1.0042,0.075,-0.1743,-0.4122,23.1756,-17.8473
0.9875,0.0742,-0.1704,-1.3893,21.6183,-17.5038
0.9736,0.0725,-0.158,-1.9924,19.8626,-17.5725
0.9541,0.0769,-0.1543,-3.2672,17.4656,-16.9618
0.9392,0.0713,-0.1516,-3.8931,15.1069,-16.4886
0.9263,0.0713,-0.1394,-4.6031,12.5573,-15.6947
0.9175,0.061,-0.1296,-5.3282,9.7328,-14.8473
0.9072,0.0593,-0.1277,-5.9618,6.9466,-13.5573
0.8994,0.0549,-0.1167,-6.4351,4.0534,-12.458
0.8921,0.0454,-0.1021,-6.855,1.374,-11.313
0.8962,0.0493,-0.0962,-7.4122,-1.2366,-9.9084
0.8855,0.0471,-0.0913,-7.8168,-3.8092,-8.4809
0.895,0.0364,-0.0947,-8.0534,-6.2366,-7.1679
0.8987,0.0413,-0.0908,-8.1756,-8.1908,-5.6336
0.9019,0.0422,-0.0698,-8.1527,-10.0382,-3.7634
0.9126,0.0396,-0.0688,-7.8626,-11.7023,-2.5725
0.9275,0.0371,-0.0591,-7.4504,-12.9466,-0.7939
0.9329,0.0378,-0.0505,-7.1832,-13.9847,0.3664
0.9458,0.0308,-0.0444,-6.3435,-14.5954,1.5725
0.9482,0.0347,-0.0476,-5.5878,-15.2824,2.9695
0.9666,0.0308,-0.0481,-4.6031,-15.1527,4.1756
0.9739,0.0281,-0.0454,-3.4427,-14.9084,4.9695
0.9917,0.0308,-0.0437,-2.5649,-14.2672,5.6718
1.0095,0.0317,-0.0547,-1.4656,-13.229,6.5496
1.0266,0.0276,-0.0476,-0.3282,-12.084,6.8779
1.0391,0.0291,-0.0498,1.0458,-10.3969,7.4122
1.0461,0.0337,-0.0483,2.0,-8.9389,8.0153
1.0525,0.0293,-0.0542,3.2672,-7.2901,7.9084
1.0588,0.0273,-0.0466,4.3511,-5.4962,7.9389
1.071,0.0308,-0.0615,5.1603,-4.0534,8.1069
1.0784,0.0398,-0.0557,6.3588,-2.771,8.0076
1.0874,0.0437,-0.062,7.1374,-1.4504,7.6641
1.0913,0.0442,-0.0791,8.1145,-0.5267,7.5115
1.1028,0.0559,-0.0798,8.5878,0.7023,7.1298
1.1082,0.0525,-0.0791,9.2366,1.4962,6.0534
1.1074,0.0605,-0.0835,9.8855,2.2519,5.3588
1.1113,0.0642,-0.095,9.8855,3.3435,4.5344
1.113,0.0623,-0.105,10.2672,4.2443,3.7176
1.1155,0.0737,-0.1047,10.0763,5.1908,2.7099
1.1116,0.072,-0.1228,9.8702,6.0,1.8321
1.1084,0.0789,-0.1279,9.8626,6.542,0.8779
1.0999,0.083,-0.1272,9.3359,7.2748,0.1298
1.095,0.0835,-0.135,8.7939,7.771,-0.3282
1.0889,0.0859,-0.1345,8.3893,7.9313,-0.9924
1.0862,0.0852,-0.1526,7.9542,8.0763,-1.313
1.0818,0.0811,-0.1472,7.1985,8.1908,-1.771
1.0747,0.0872,-0.1565,6.5954,7.8397,-1.8779
1.0735,0.0857,-0.1462,5.916,7.374,-2.1679
1.0669,0.0913,-0.1638,5.1527,7.1756,-2.1603
1.0647,0.0886,-0.1621,4.374,6.7328,-2.145
1.0603,0.0823,-0.1633,3.5954,6.2214,-2.0534
1.0537,0.084,-0.1533,2.5649,5.6107,-2.4427
1.0508,0.0815,-0.1577,1.9924,4.9237,-2.4275
1.0457,0.0747,-0.1677,1.0153,4.3359,-2.4962
1.0391,0.0696,-0.1584,0.1603,3.8092,-2.7099
1.04,0.0703,-0.1553,-0.4885,3.0305,-2.6412
1.0413,0.072,-0.1521,-1.0076,2.5802,-2.458
1.0405,0.0698,-0.1445,-1.6718,2.0305,-2.5649
1.0364,0.0693,-0.1404,-2.2672,1.3817,-2.2672
1.0366,0.0598,-0.1455,-2.9466,0.9847,-1.9389
1.0254,0.0625,-0.1326,-3.1756,0.5191,-1.7557
1.0176,0.05,-0.1287,-3.3053,0.4427,-1.7176
1.0188,0.0574,-0.1311,-3.5496,-0.0611,-1.626
1.019,0.0554,-0.124,-3.4809,-0.3969,-1.2595
1.0122,0.0532,-0.1155,-3.6107,-0.5878,-0.6183
1.0134,0.0515,-0.1089,-3.7099,-0.9084,-0.3053
1.0093,0.0466,-0.0952,-3.8168,-1.2901,0.3664
1.0117,0.0522,-0.0867,-3.4733,-2.1069,1.1832
1.009,0.0476,-0.0808,-3.4046,-2.8015,2.3359
1.0115,0.0503,-0.0759,-3.1145,-2.9695,3.0305
1.0168,0.0466,-0.0723,-2.6641,-3.1221,3.5573
1.009,0.0488,-0.0674,-2.0763,-3.3969,4.2977
1.01,0.0496,-0.0654,-1.6031,-3.4046,4.8931
1.021,0.0513,-0.0588,-0.9313,-3.1527,5.3969
1.0234,0.0417,-0.0588,-0.4885,-3.0611,5.6031
1.0242,0.0391,-0.0635,0.2519,-2.3969,5.9237
1.0254,0.0444,-0.0522,0.8779,-1.8931,6.1221
1.0327,0.0403,-0.0493,1.626,-1.5267,6.2595
1.0325,0.0349,-0.05,2.1908,-1.0,6.4427
1.0352,0.0386,-0.0481,3.0611,-0.5115,6.4504
1.0344,0.0403,-0.0459,3.7634,-0.229,6.6183
1.033,0.0378,-0.042,4.542,0.0611,6.6565
1.0295,0.0471,-0.0337,5.458,0.0458,6.7481
1.0422,0.0422,-0.0261,6.1145,0.1221,6.7481
1.032,0.0427,-0.0305,6.7557,0.145,7.1985
1.04,0.0444,-0.042,7.3969,-0.0687,7.5344
1.0476,0.0422,-0.0388,8.0611,-0.1679,7.7939
