ax,ay,az,gx,gy,gz
1.0503,0.0002,1.0591,46.3206,-31.7023,5.1298
1.0803,-0.0215,1.0837,54.3893,-33.9771,4.0763
1.1094,-0.0427,1.1091,62.6718,-36.1603,2.9618
1.1377,-0.0652,1.1274,71.1527,-37.9084,1.4275
1.166,-0.0928,1.147,79.9389,-39.4427,-0.4962
1.1875,-0.1086,1.1523,88.3359,-40.2214,-2.4504
1.2104,-0.1213,1.1399,97.084,-40.4809,-4.4962
1.2126,-0.1218,1.1343,105.8244,-39.5115,-6.4351
1.2429,-0.1277,1.1169,114.4962,-38.0534,-8.2748
1.2454,-0.1396,1.1011,122.9313,-36.3053,-9.5344
1.2632,-0.1487,1.0854,132.2443,-33.7863,-10.8931
1.2671,-0.1489,1.0625,140.374,-31.2137,-12.1908
1.2729,-0.1553,1.0371,148.4657,-28.0534,-12.9237
1.2661,-0.1519,1.0132,156.2443,-24.8092,-13.6794
1.2651,-0.1609,0.9885,163.9542,-21.2061,-14.4733
1.2656,-0.1594,0.9661,170.458,-17.9924,-15.0
1.2649,-0.1721,0.9434,177.9313,-14.0458,-15.4656
1.2615,-0.189,0.9204,184.6641,-9.916,-15.7863
1.2583,-0.1982,0.9019,190.9389,-5.4733,-16.0229
1.2532,-0.2373,0.8921,196.7939,-1.084,-16.0992
1.2461,-0.2776,0.897,202.7405,2.7634,-16.1603
1.2373,-0.2991,0.9072,209.0076,6.4504,-16.3893
1.2256,-0.3132,0.9236,215.2672,10.0458,-16.2672
1.2151,-0.3359,0.947,222.4122,13.4351,-16.5344
1.2085,-0.3406,0.9558,229.8321,16.3969,-17.0
1.167,-0.3687,0.9539,237.7099,21.9618,-17.0076
1.1948,-0.3975,1.0134,246.1985,27.1298,-16.3969
1.1677,-0.3943,1.0928,250.1298,27.0,-15.626
1.1338,-0.3997,1.1187,250.1298,27.084,-15.1298
1.1218,-0.405,1.1709,250.1298,26.5954,-14.7634
1.0938,-0.4104,1.2336,250.1298,23.7863,-15.4504
1.0803,-0.4368,1.2405,250.1298,20.2672,-16.2443
1.0654,-0.4661,1.2493,250.1298,16.6947,-17.4656
1.0542,-0.5317,1.26,250.1298,12.6641,-19.2443
1.0356,-0.6067,1.2415,250.1298,10.6336,-21.5344
1.0137,-0.6746,1.2239,250.1298,9.4504,-23.8779
0.978,-0.7322,1.1934,250.1298,8.5115,-26.1679
0.9297,-0.7886,1.179,250.1298,7.7863,-28.5191
0.8772,-0.8252,1.1516,250.1298,7.1756,-30.0992
0.8032,-0.8455,1.1128,250.1298,7.229,-30.6489
0.7603,-0.8494,1.093,250.1298,8.3511,-30.3359
0.6953,-0.8674,1.0366,250.1298,9.8702,-28.2672
0.6328,-0.9004,0.989,250.1298,12.4046,-24.6947
0.5693,-0.9336,0.9297,250.1298,15.2519,-19.8397
0.5195,-0.9685,0.8608,250.1298,19.6641,-11.8244
0.4741,-0.9973,0.8049,250.1298,23.6947,-3.6183
0.4309,-1.0283,0.7568,250.1298,27.5191,5.5573
0.3977,-1.051,0.7141,250.1298,31.145,16.3588
0.3779,-1.0823,0.6816,250.1298,34.1527,27.0076
0.363,-1.0967,0.6453,250.1298,37.2061,38.1374
0.365,-1.1206,0.6216,250.1298,39.6794,49.3359
0.3608,-1.1228,0.5688,250.1298,41.626,60.1985
0.3574,-1.1182,0.5544,250.1298,43.2061,70.0
0.3779,-1.1121,0.4895,250.1298,45.2824,80.5802
0.3936,-1.1182,0.438,250.1298,46.0534,89.9389
0.4282,-1.1248,0.3655,250.1298,46.1985,98.3817
0.4595,-1.1372,0.2864,250.1298,46.2672,105.7939
0.5005,-1.1455,0.2241,250.1298,45.5496,112.1145
0.5352,-1.1616,0.1436,250.1298,43.6565,118.0382
0.5637,-1.1873,0.0596,250.1298,41.5954,122.5802
0.5972,-1.2144,-0.0146,250.1298,38.6412,126.0611
0.6072,-1.2141,-0.0486,250.1298,35.2672,128.9695
0.6338,-1.2234,-0.0947,250.1298,30.6565,131.0
0.6567,-1.2163,-0.1384,250.1298,25.2366,132.0153
0.6819,-1.2017,-0.1902,250.1298,18.6565,133.4275
0.7043,-1.1875,-0.2405,250.1298,10.8244,134.1756
0.73,-1.179,-0.2695,250.1298,1.2672,134.7099
0.7664,-1.1714,-0.3455,250.1298,-9.2214,135.2061
0.8059,-1.1626,-0.4307,250.1298,-20.7863,135.4427
0.8252,-1.156,-0.4719,250.1298,-32.7405,135.0458
0.874,-1.1565,-0.5715,250.1298,-45.458,134.3969
0.936,-1.1343,-0.696,250.1298,-56.4351,133.5267
0.9817,-1.1206,-0.8298,250.1298,-66.9466,131.9008
1.0388,-1.0889,-0.9519,250.1298,-76.8702,129.7786
1.0808,-1.0491,-1.0847,250.1298,-85.687,127.6489
1.1306,-1.0188,-1.2227,250.1298,-90.7328,124.3206
1.1577,-0.9702,-1.3618,250.1298,-94.2672,120.4733
1.1777,-0.9438,-1.4092,250.1298,-95.8015,116.6107
1.2078,-0.8799,-1.5229,250.1298,-95.5725,111.9695
1.2205,-0.8074,-1.6348,250.1298,-93.313,107.2977
1.2251,-0.7505,-1.7354,250.1298,-91.5573,102.8092
1.2434,-0.6812,-1.8418,250.1298,-86.2901,98.5191
1.2515,-0.6208,-1.9353,250.1298,-80.1603,94.7634
1.2542,-0.5784,-2.0,250.1298,-72.9084,91.7786
1.2412,-0.5327,-2.0,250.1298,-64.8015,89.3588
1.2231,-0.4949,-2.0,250.1298,-57.4351,87.855
1.2114,-0.4739,-2.0,250.1298,-49.4427,87.1145
1.2019,-0.4377,-2.0,250.1298,-41.1832,87.2748
1.1868,-0.3943,-2.0,250.1298,-33.7634,88.0916
1.1775,-0.3518,-2.0,250.1298,-27.1145,89.3511
1.1697,-0.3389,-2.0,250.1298,-21.3053,91.1374
1.1523,-0.303,-2.0,250.1298,-16.6183,93.1603
1.1436,-0.2678,-2.0,250.1298,-13.4351,95.0305
1.1431,-0.2505,-2.0,250.1298,-11.1527,96.7481
1.135,-0.2373,-2.0,250.1298,-9.8931,98.2137
1.1353,-0.2346,-2.0,250.1298,-9.6183,99.1985
1.1392,-0.2505,-2.0,237.8244,-10.0458,99.687
1.1482,-0.2751,-2.0,222.7176,-10.9389,99.3435
1.1594,-0.2961,-1.9641,205.6336,-11.6412,98.1221
1.1733,-0.3154,-1.9241,192.3893,-12.2061,96.7634
1.187,-0.335,-1.8638,179.9008,-12.8244,95.1756
1.2031,-0.3452,-1.8157,168.1679,-13.313,92.8702
1.2012,-0.3643,-1.7725,157.2672,-13.6718,90.7099
1.2078,-0.394,-1.73,147.0458,-14.2366,88.6031
1.2078,-0.429,-1.6875,137.4198,-14.4122,86.2519
1.2092,-0.4551,-1.6423,128.6641,-14.4733,83.8779
1.2048,-0.4712,-1.6091,119.3359,-14.7328,81.8702
1.2112,-0.4917,-1.5754,111.9237,-14.1527,80.0229
1.2046,-0.5129,-1.5315,104.4046,-13.3969,78.4275
1.2061,-0.5271,-1.5007,96.4046,-12.1603,76.6336
1.2136,-0.5542,-1.4661,89.5038,-10.7634,75.145
1.2075,-0.574,-1.4463,82.7405,-8.8244,73.4809
1.2085,-0.5959,-1.4001,76.3359,-7.1298,71.9847
1.2078,-0.616,-1.387,70.1221,-5.3893,70.4733
1.2046,-0.6372,-1.3552,64.1756,-3.7863,68.855
1.2129,-0.6431,-1.3301,58.5115,-2.3588,67.3053
1.2095,-0.6509,-1.2957,53.0763,-1.1298,65.4351
1.2102,-0.6721,-1.2766,47.8092,-0.4962,63.6718
1.2102,-0.6841,-1.2407,42.9466,-0.1527,61.6183
1.217,-0.6926,-1.2202,38.2366,-0.0458,59.1145
1.2251,-0.6995,-1.1973,33.5802,-0.1374,56.6412
1.2339,-0.7021,-1.1836,29.2137,-0.6718,53.8473
1.2407,-0.7043,-1.1719,24.9542,-0.7939,50.8244
1.2373,-0.7034,-1.1621,20.9542,-0.9924,47.3588
1.2544,-0.7058,-1.1509,16.6947,-0.8779,44.0992
1.2578,-0.7097,-1.1504,12.6565,-0.9924,40.5038
1.2693,-0.7346,-1.1333,8.2366,-1.1756,36.3588
1.2837,-0.752,-1.1499,3.9542,-0.7252,32.6565
1.2817,-0.7646,-1.1514,-0.4885,-0.2061,28.8626
1.2874,-0.7805,-1.1453,-4.9008,0.9084,25.1298
1.2866,-0.782,-1.1421,-9.2214,2.0382,21.2443
1.282,-0.7888,-1.1497,-13.3893,3.3511,17.5344
1.2781,-0.801,-1.1409,-17.4122,4.2519,14.084
1.2727,-0.8152,-1.1243,-21.9466,4.9771,10.6489
1.2769,-0.8159,-1.0974,-26.4351,5.4504,6.8779
1.2737,-0.8125,-1.0889,-30.7176,6.3588,3.8321
1.2683,-0.804,-1.0784,-34.916,7.313,0.7786
1.2573,-0.7874,-1.0554,-38.916,8.5496,-2.2824
1.2483,-0.7886,-1.031,-42.3053,9.8168,-4.9542
1.2334,-0.7852,-1.0122,-45.7023,11.5496,-7.7863
1.23,-0.7776,-1.0049,-49.229,13.2519,-10.7634
1.2258,-0.7798,-0.9824,-52.4046,14.7634,-13.313
1.2119,-0.7842,-0.9688,-55.5725,16.084,-15.9008
1.2004,-0.7808,-0.949,-58.8244,17.1221,-18.4198
1.1819,-0.7756,-0.9353,-61.9695,18.0458,-20.5038
1.1682,-0.7766,-0.9316,-64.8168,19.3282,-22.6031
1.1497,-0.7803,-0.9192,-67.8397,20.6183,-24.4656
1.1401,-0.772,-0.9092,-70.7176,21.6031,-25.8931
1.1335,-0.7661,-0.9038,-73.6183,22.3282,-27.1221
1.1172,-0.7571,-0.8936,-76.6794,22.3282,-28.229
1.1025,-0.7439,-0.8811,-79.9313,21.6641,-29.0229
1.0918,-0.7449,-0.8638,-83.0229,20.2672,-29.2748
1.0879,-0.7373,-0.8591,-87.6794,18.3206,-30.1221
1.0796,-0.7378,-0.8525,-91.3588,16.2366,-30.5496
1.0715,-0.7346,-0.8411,-95.1679,14.2672,-30.4504
1.0713,-0.729,-0.8352,-99.6718,12.771,-30.7328
1.0752,-0.7168,-0.8423,-103.3053,11.6336,-30.4886
1.0867,-0.7114,-0.8442,-107.0916,10.6947,-30.1756
1.0862,-0.6912,-0.8296,-110.7863,9.8626,-30.0
1.0974,-0.676,-0.8401,-114.5573,9.0229,-29.4198
1.1072,-0.6672,-0.8401,-117.9542,8.1374,-28.8702
1.116,-0.6443,-0.8391,-122.2214,7.2519,-28.2595
1.1309,-0.6196,-0.8508,-125.9618,6.0382,-27.9924
1.1489,-0.605,-0.845,-129.9771,5.229,-27.7176
1.1753,-0.5857,-0.865,-134.1298,4.458,-27.7634
1.1926,-0.5742,-0.8728,-138.1908,4.374,-28.1374
1.2195,-0.5569,-0.8665,-142.5725,4.5267,-27.9771
1.2468,-0.5396,-0.8904,-146.8092,5.313,-28.4427
1.2678,-0.5264,-0.8914,-151.2901,6.1908,-29.084
1.2754,-0.5127,-0.9041,-155.6412,7.2061,-30.084
1.2915,-0.4673,-0.9114,-160.2366,8.313,-31.1069
1.3174,-0.45,-0.9331,-164.9542,9.7634,-32.2366
1.3293,-0.4402,-0.9341,-170.0534,11.1145,-33.3969
1.3467,-0.4299,-0.9431,-175.6718,12.2137,-35.1145
1.3699,-0.4128,-0.967,-181.3588,13.8931,-36.4809
1.3833,-0.4001,-0.9797,-186.9771,15.5115,-38.2366
1.3984,-0.3777,-1.0059,-192.9618,17.5802,-40.1145
1.3997,-0.3757,-1.011,-198.7786,19.4733,-42.0076
1.4104,-0.3679,-1.0205,-205.3817,21.1374,-44.1679
1.4194,-0.3657,-1.0422,-211.8397,23.6336,-46.4962
1.418,-0.3689,-1.0601,-218.2977,25.9389,-48.687
1.4229,-0.3704,-1.0798,-225.0,28.5878,-51.1298
1.4214,-0.3887,-1.0867,-231.6565,31.7176,-53.5191
1.4246,-0.4053,-1.0913,-238.5954,34.5267,-56.0763
1.4114,-0.4368,-1.1008,-245.8321,37.6107,-58.6641
1.408,-0.4551,-1.0923,-250.1374,40.1374,-61.0
1.4045,-0.4683,-1.075,-250.1374,42.4504,-63.4275
1.4021,-0.4839,-1.0649,-250.1374,44.855,-65.9084
1.3848,-0.4944,-1.0374,-250.1374,47.0916,-68.2214
1.3699,-0.5073,-1.0186,-250.1374,49.6489,-70.7634
1.3574,-0.5396,-1.0029,-250.1374,52.4885,-73.2137
1.3364,-0.5923,-0.9844,-250.1374,55.3511,-75.8321
1.3196,-0.6562,-0.9431,-250.1374,57.9237,-78.5573
1.2991,-0.6902,-0.8992,-250.1374,59.9771,-81.5038
1.2805,-0.7019,-0.8701,-250.1374,60.9542,-84.1908
1.2485,-0.7058,-0.8025,-250.1374,61.8092,-86.6718
1.2141,-0.7092,-0.7288,-250.1374,61.4427,-89.0992
1.1755,-0.7061,-0.6702,-250.1374,60.4122,-91.9542
1.1245,-0.7131,-0.5972,-250.1374,58.8092,-94.4657
1.0869,-0.7195,-0.5291,-250.1374,56.7176,-95.9924
1.0513,-0.7266,-0.4612,-250.1374,53.8244,-96.6183
1.0166,-0.7583,-0.4138,-250.1374,51.0458,-98.6718
0.9973,-0.7734,-0.3894,-250.1374,48.2824,-99.0992
0.9639,-0.7742,-0.3416,-250.1374,44.5496,-99.7405
0.9353,-0.7832,-0.3127,-250.1374,41.6107,-100.2519
0.9011,-0.7654,-0.2725,-250.1374,38.687,-100.1374
0.8875,-0.7483,-0.2524,-250.1374,35.5573,-99.7786
0.8687,-0.717,-0.2078,-250.1374,33.0763,-99.0687
0.8582,-0.6946,-0.1875,-250.1374,30.9237,-98.2901
0.835,-0.6572,-0.1768,-250.1374,28.7939,-96.6947
0.8235,-0.6177,-0.1763,-250.1374,27.0916,-96.0992
0.8088,-0.5862,-0.1565,-250.1374,25.5038,-93.7099
0.803,-0.5559,-0.1392,-250.1374,24.2672,-92.229
0.7991,-0.533,-0.1433,-250.1374,23.0763,-89.6794
0.792,-0.501,-0.1477,-250.1374,22.1527,-86.9084
0.7952,-0.4814,-0.1609,-250.1374,21.0916,-84.3588
0.8015,-0.4558,-0.165,-250.1374,20.0382,-81.3664
0.8127,-0.4426,-0.1704,-250.1374,19.2519,-78.3206
0.8184,-0.4036,-0.1931,-250.1374,18.4427,-75.0
0.8374,-0.3818,-0.2122,-250.1374,18.1069,-71.9924
0.8542,-0.3191,-0.2483,-250.1374,18.5649,-68.9924
0.8831,-0.2817,-0.2754,-250.1374,19.5344,-65.7557
0.8999,-0.2588,-0.3113,-250.1374,20.3511,-62.7557
0.928,-0.2512,-0.3499,-250.1374,21.7481,-60.5878
0.9651,-0.25,-0.3833,-250.1374,23.687,-58.7634
0.999,-0.2583,-0.426,-250.1374,25.4809,-57.2137
1.0166,-0.2568,-0.4448,-250.1374,27.9771,-56.2901
1.0525,-0.2664,-0.4805,-250.1374,30.9008,-55.771
1.0933,-0.2642,-0.5276,-250.1374,34.4733,-55.8397
1.126,-0.2534,-0.5476,-250.1374,38.7252,-56.3893
1.1516,-0.2493,-0.571,-250.1374,43.3359,-57.2443
1.1853,-0.248,-0.5813,-250.1374,48.3817,-58.1298
1.2161,-0.2246,-0.5872,-250.1374,53.7099,-59.4122
1.2393,-0.2332,-0.5972,-250.1374,58.9084,-61.084
1.2576,-0.2419,-0.6069,-250.1374,63.9313,-62.6336
1.2668,-0.2681,-0.5984,-250.1374,69.0611,-64.9313
1.2783,-0.2952,-0.6157,-250.1374,74.1527,-67.8244
1.2754,-0.3354,-0.6194,-250.1374,79.5267,-70.7939
1.2651,-0.3733,-0.6003,-250.1374,84.7863,-74.5878
1.2644,-0.426,-0.5925,-250.1374,90.1756,-79.0687
1.2329,-0.4695,-0.5745,-250.1374,94.7099,-83.2061
1.2046,-0.5261,-0.5415,-250.1374,98.0992,-87.8473
1.1804,-0.5452,-0.5261,-250.1374,100.3435,-92.0076
1.1431,-0.5874,-0.4729,-250.1374,101.6794,-96.5038
1.0974,-0.6145,-0.4331,-250.1374,101.5343,-101.542
1.0513,-0.6301,-0.3652,-250.1374,100.2824,-105.6031
0.9883,-0.6257,-0.3105,-250.1374,97.8855,-109.0687
0.9346,-0.6157,-0.2383,-250.1374,94.3969,-112.0763
0.8713,-0.6096,-0.1829,-250.1374,89.9084,-114.4504
0.8096,-0.5898,-0.1233,-250.1374,83.9924,-116.313
0.7761,-0.5825,-0.0869,-250.1374,77.3053,-117.3053
0.7102,-0.5854,-0.022,-250.1374,69.0916,-118.1908
0.6475,-0.5847,0.0088,-250.1374,60.6641,-118.1527
0.585,-0.5735,0.0681,-250.1374,51.6489,-118.2366
0.5334,-0.5571,0.0918,-250.1374,42.5802,-117.374
0.4841,-0.5554,0.136,-250.1374,32.9924,-116.0763
0.4612,-0.5645,0.167,-250.1374,22.7328,-114.0305
0.4304,-0.5493,0.1851,-250.1374,13.1221,-111.313
0.4211,-0.519,0.1953,-250.1374,3.2672,-108.3282
0.4194,-0.4971,0.2031,-250.1374,-6.5038,-104.7099
0.4026,-0.46,0.2068,-250.1374,-15.7786,-99.6947
0.408,-0.3706,0.2175,-250.1374,-26.313,-92.4733
0.4204,-0.3176,0.21,-250.1374,-34.1832,-86.0382
0.4409,-0.2747,0.2104,-250.1374,-40.4885,-78.9008
0.4641,-0.2305,0.2048,-250.1374,-45.5802,-72.2519
0.4971,-0.2073,0.1965,-250.1374,-49.8702,-65.0076
0.5286,-0.1831,0.1836,-250.1374,-53.4885,-57.8855
0.574,-0.1741,0.1611,-250.1374,-56.8626,-51.0382
0.592,-0.1611,0.1567,-250.1374,-59.1985,-44.6412
0.6521,-0.1438,0.1367,-250.1374,-61.2443,-37.2672
0.7227,-0.1372,0.1138,-250.1374,-62.2214,-30.9008
0.783,-0.1274,0.0662,-250.1374,-62.2061,-25.1374
0.8555,-0.1311,0.0291,-250.1374,-60.0916,-19.7786
0.9348,-0.134,-0.0166,-250.1374,-56.7557,-15.1374
1.0166,-0.1357,-0.0615,-250.1374,-51.7252,-11.7405
1.0933,-0.135,-0.0925,-250.1374,-45.1603,-9.7481
1.1604,-0.1218,-0.1204,-250.1374,-37.458,-8.771
1.1826,-0.1038,-0.1306,-250.1374,-28.1985,-9.3588
1.2366,-0.0801,-0.1492,-250.1374,-17.9924,-10.9771
1.2832,-0.0496,-0.1423,-250.1374,-7.8168,-13.5802
1.3284,-0.0273,-0.1389,-250.1374,1.1985,-17.0382
1.3552,-0.0232,-0.1282,-250.1374,9.1603,-20.916
1.3762,-0.0198,-0.1345,-250.1374,16.855,-25.1985
1.395,-0.0273,-0.1289,-250.1374,24.4809,-30.3511
1.4009,-0.0266,-0.1128,-250.1374,31.5191,-35.9771
1.3926,-0.03,-0.1013,-250.1374,37.3359,-41.0687
1.3735,-0.0276,-0.0962,-250.1374,43.5878,-47.3817
1.3452,-0.0247,-0.0769,-250.1374,48.2901,-53.4656
1.304,-0.0391,-0.0576,-250.1374,51.7939,-59.0992
1.2607,-0.0527,-0.0381,-250.1374,54.5878,-64.687
1.2253,-0.0684,-0.0044,-250.1374,55.7252,-70.2901
1.1682,-0.0879,0.0403,-250.1374,55.6641,-75.7099
1.1177,-0.1072,0.0745,-250.1374,54.6565,-80.4275
1.0588,-0.1311,0.1113,-250.1374,52.6107,-85.4427
1.0366,-0.1504,0.1399,-250.1374,48.7863,-90.2901
0.9626,-0.2041,0.1931,-250.1374,43.9237,-94.3893
0.8962,-0.2759,0.2458,-250.1374,37.5878,-99.1298
0.8235,-0.3701,0.325,-250.1374,29.3206,-102.9695
0.7466,-0.4697,0.3889,-250.1374,19.1603,-106.8244
0.6733,-0.5537,0.4893,-250.1374,6.9237,-110.2977
0.6121,-0.6221,0.5925,-250.1374,-7.0916,-113.229
0.562,-0.6482,0.6997,-250.1374,-22.6489,-115.6031
0.5503,-0.6658,0.7495,-250.1374,-39.3053,-116.7786
0.5022,-0.6716,0.874,-250.1374,-57.9084,-117.2366
0.4702,-0.6477,0.9932,-250.1374,-76.6107,-116.8321
0.4541,-0.6304,1.0996,-250.1374,-95.6107,-115.4427
0.4382,-0.6006,1.1968,-250.1374,-113.916,-113.5496
0.4529,-0.572,1.2834,-250.1374,-130.5267,-110.7634
0.4795,-0.5483,1.3411,-250.1374,-145.1527,-107.1756
0.51,-0.5933,1.3606,-250.1374,-156.9008,-103.4885
0.5317,-0.6611,1.3701,-250.1374,-164.5878,-100.1985
0.5923,-0.7622,1.3774,-250.1374,-170.6183,-95.0153
0.6584,-0.7148,1.4136,-250.1374,-177.2061,-90.5649
0.7129,-0.6445,1.4219,-250.1374,-183.3359,-86.2977
0.7322,-0.5886,1.458,-250.1374,-190.3817,-81.4198
0.8262,-0.5083,1.4009,-250.1374,-189.9084,-77.5573
0.9292,-0.447,1.3696,-250.1374,-183.8168,-73.1069
1.0127,-0.4143,1.375,-250.1374,-177.0534,-68.7481
1.0918,-0.3767,1.3604,-250.1374,-169.0305,-65.084
1.1768,-0.3745,1.3369,-244.5267,-157.2824,-61.6794
1.2427,-0.3799,1.3289,-228.374,-142.229,-58.7023
1.2935,-0.3933,1.3145,-212.2672,-125.9084,-55.8931
1.3291,-0.4019,1.292,-197.374,-109.687,-53.6947
1.3604,-0.396,1.2874,-180.8626,-90.2595,-51.5267
1.3752,-0.3887,1.292,-165.5954,-72.687,-49.4504
1.3779,-0.3877,1.2815,-150.8397,-54.7786,-47.9695
1.3635,-0.3779,1.2607,-136.2366,-37.3969,-46.3359
1.3442,-0.3589,1.2324,-122.0992,-20.9389,-44.6031
1.3162,-0.3411,1.2271,-108.6183,-5.2901,-42.9924
1.2827,-0.311,1.1909,-95.687,9.3511,-40.6412
1.2407,-0.2927,1.1563,-83.3053,22.6565,-38.0916
1.2188,-0.2764,1.1411,-71.542,33.5267,-35.3511
1.1548,-0.2336,1.104,-59.8702,42.9847,-32.1145
1.1042,-0.2048,1.0435,-49.5267,50.9618,-28.8244
1.0461,-0.1467,1.0103,-40.1374,56.916,-24.9466
0.988,-0.0906,0.9751,-31.7252,60.1756,-20.7786
0.9348,-0.0381,0.9268,-24.5038,61.8779,-16.313
0.8845,0.0205,0.8989,-18.0153,61.4962,-12.1985
0.8403,0.0647,0.8674,-12.9695,59.6947,-7.7634
0.8269,0.0828,0.8455,-8.9542,56.8015,-3.458
0.8054,0.1165,0.7878,-5.7557,51.7863,1.2214
0.7842,0.1387,0.7385,-3.9924,46.2137,5.084
0.7783,0.1575,0.6719,-2.9389,40.6947,8.9008
0.7815,0.1746,0.6062,-2.7634,35.0763,12.3435
0.7825,0.1978,0.5557,-3.3817,29.4122,15.4809
0.8049,0.2139,0.5161,-4.6718,23.5649,18.1145
0.8162,0.2229,0.4756,-6.5191,17.9389,20.916
0.825,0.2244,0.4707,-8.4427,12.6107,23.084
0.8445,0.2205,0.4265,-11.2748,7.0229,24.7557
0.8594,0.208,0.3938,-13.7252,1.9008,26.1221
0.8835,0.1755,0.3875,-17.0534,-3.6718,26.8244
0.9106,0.1228,0.3696,-20.4122,-9.6718,26.6489
0.9341,0.0601,0.3525,-23.8321,-15.3817,26.0153
0.9521,0.0012,0.3596,-27.4733,-20.8244,24.5802
0.9839,-0.0557,0.3604,-30.687,-25.9847,22.3206
1.0012,-0.0645,0.3728,-33.6336,-30.5878,19.5725
1.0308,-0.0627,0.3923,-35.855,-35.3511,16.1908
1.0496,-0.0466,0.4312,-37.0763,-39.084,12.5878
1.0847,-0.019,0.4692,-37.2443,-42.687,8.542
1.1147,0.0044,0.5195,-36.3588,-46.2366,4.5496
1.1431,0.0129,0.5654,-33.9466,-49.9542,0.8473
1.1736,0.0151,0.6191,-31.0229,-54.0687,-3.0229
1.2019,0.0144,0.6448,-27.0305,-57.6336,-6.916
1.2195,0.0071,0.6797,-22.1985,-60.3053,-10.7252
1.2292,-0.0049,0.6978,-16.9084,-62.3206,-14.6718
1.2402,-0.022,0.7288,-10.7634,-63.3893,-18.7863
1.2549,-0.0488,0.7495,-4.2519,-63.5649,-22.8855
1.2593,-0.0615,0.7651,2.687,-63.0534,-27.1756
1.2629,-0.0862,0.7859,10.5802,-61.1832,-31.4809
1.2517,-0.1008,0.7893,20.4046,-58.3511,-35.9389
1.2393,-0.1187,0.8108,28.9389,-54.7863,-39.8321
1.2239,-0.1292,0.8081,37.9466,-50.8779,-42.5038
1.2021,-0.1353,0.823,47.0687,-46.9084,-44.8244
1.1633,-0.1211,0.8196,56.4427,-42.1145,-46.6947
1.125,-0.123,0.8228,66.2366,-37.3359,-47.5954
1.0859,-0.113,0.8284,76.0382,-32.5878,-47.7481
1.0647,-0.1067,0.8337,86.0763,-27.7252,-47.084
1.0178,-0.1016,0.8508,95.8168,-23.3817,-46.0458
0.98,-0.0876,0.8384,106.0687,-19.2519,-43.6641
0.936,-0.082,0.8372,115.313,-15.6107,-40.6718
0.897,-0.0747,0.821,124.4885,-12.2824,-37.229
0.8518,-0.0728,0.8013,133.7863,-8.5573,-32.7557
0.8149,-0.0659,0.7798,142.8321,-4.8397,-27.8931
0.7754,-0.0652,0.7581,151.5573,-1.687,-22.6718
0.759,-0.064,0.7649,159.855,0.8015,-17.3359
0.7278,-0.0586,0.7581,169.0458,3.1832,-11.0153
0.6997,-0.0535,0.7419,177.5802,4.6336,-4.7328
0.6829,-0.0591,0.731,186.0916,5.3588,1.6183
0.6663,-0.061,0.6887,194.2214,5.5344,8.1527
0.6555,-0.0542,0.6443,201.7939,5.4351,14.5496
0.6428,-0.051,0.5681,208.9466,5.1221,21.0992
0.6404,-0.04,0.4756,215.5343,5.2901,27.771
0.6433,-0.0305,0.3918,221.3969,6.145,34.4504
0.6345,-0.0244,0.3645,226.4962,6.9389,41.0
0.6431,0.0073,0.2778,230.5038,8.3435,47.6336
0.6616,0.0168,0.2061,233.855,9.7023,54.4885
0.6919,0.0244,0.1331,236.3359,11.0,61.0992
0.7078,0.0295,0.0735,237.6947,12.374,67.5878
0.7332,0.0349,0.0012,238.4504,13.916,74.7405
0.7539,0.0251,-0.0481,238.2443,14.9084,80.7481
0.7866,0.0237,-0.0854,237.0229,15.8321,86.084
0.802,0.0232,-0.1238,235.0229,15.8321,91.1298
0.8171,0.0161,-0.1316,232.7176,15.1298,95.4122
0.8442,0.0095,-0.1494,229.8015,13.687,98.5573
0.8701,0.0127,-0.1655,226.0534,12.5344,101.687
0.9033,0.0239,-0.1733,222.0992,11.229,103.6031
0.9475,0.0393,-0.179,218.1832,9.8244,104.7023
0.9734,0.0483,-0.1758,214.0229,7.8779,104.7328
1.0081,0.0496,-0.175,210.4122,5.8702,104.8473
1.0439,0.043,-0.1572,207.2901,3.4046,103.5343
1.0557,0.0432,-0.1484,204.0763,0.7863,101.3893
1.0999,0.0354,-0.1287,201.3969,-2.5115,99.0992
1.1169,0.0166,-0.0889,199.313,-6.5267,95.3969
1.1489,0.0117,-0.0588,198.0,-10.3511,91.4809
1.1716,0.0046,-0.0466,197.0229,-13.7405,87.0611
1.1943,-0.0122,-0.0247,196.916,-17.0992,81.9847
1.2168,-0.0276,0.0073,197.5802,-20.0229,76.5878
1.2302,-0.0549,0.0239,198.6947,-22.1908,70.9008
1.2495,-0.084,0.0376,200.6031,-24.1756,65.4733
1.27,-0.0957,0.0371,203.3282,-25.3588,59.7863
1.2781,-0.1255,0.0562,206.4122,-26.3206,54.3359
1.2827,-0.1475,0.0759,210.2748,-26.4886,49.0153
1.2866,-0.1646,0.0876,214.8321,-26.2519,44.084
1.2898,-0.1814,0.0991,221.0,-25.4962,38.6336
1.2776,-0.2019,0.1033,227.0687,-24.0992,34.5725
1.2854,-0.2202,0.1089,232.8626,-21.916,30.9389
1.2737,-0.2332,0.1174,239.0,-19.5725,28.0076
1.2661,-0.2461,0.125,244.9466,-17.0382,25.6489
1.2488,-0.2703,0.1147,250.1298,-13.9466,23.4809
1.2336,-0.2678,0.093,250.1298,-10.2977,21.5954
1.2214,-0.2617,0.0762,250.1298,-5.4962,20.687
1.2231,-0.2578,0.0637,250.1298,-0.3511,19.8397
1.1963,-0.2588,0.031,250.1298,5.542,19.5496
1.1785,-0.2576,0.0315,250.1298,10.7176,19.8321
1.1614,-0.2649,-0.0002,250.1298,15.9313,20.0458
1.1558,-0.2632,-0.0217,250.1298,20.7481,20.8855
1.1528,-0.2764,-0.0591,250.1298,25.8168,22.2901
1.1541,-0.269,-0.0945,250.1298,31.1832,24.145
1.1597,-0.2583,-0.1367,250.1298,36.7634,25.9771
1.1431,-0.2566,-0.1873,250.1298,42.5878,28.145
1.1436,-0.252,-0.2207,250.1298,48.3817,30.5038
1.1392,-0.2388,-0.2749,250.1298,53.8779,32.3817
1.1167,-0.2317,-0.313,250.1298,58.7023,34.0916
1.1018,-0.2148,-0.3687,250.1298,62.9924,35.5496
1.085,-0.2129,-0.4045,250.1298,66.1985,37.0687
1.0388,-0.2085,-0.4067,250.1298,64.9313,37.6641
1.0647,-0.2051,-0.4912,250.1298,64.1527,38.7328
1.1174,-0.1902,-0.6206,250.1298,69.6794,40.8397
1.1177,-0.1719,-0.6304,250.1298,74.9924,43.2519
1.064,-0.1885,-0.5972,250.1298,72.8244,45.0916
1.0864,-0.1843,-0.6731,250.1298,72.9313,47.1985
1.0859,-0.1741,-0.7021,250.1298,73.8473,48.9924
1.0688,-0.1631,-0.7151,250.1298,70.7939,50.3282
1.0876,-0.1345,-0.7749,250.1298,69.4046,52.3817
1.0801,-0.1135,-0.7747,250.1298,66.771,53.7557
1.0869,-0.0789,-0.8101,250.1298,62.855,54.6336
1.0962,-0.0681,-0.8337,250.1298,60.229,55.2366
1.0935,-0.0432,-0.8528,250.1298,56.4733,55.7863
1.0889,-0.0217,-0.8835,250.1298,52.2824,55.5954
1.0857,0.0103,-0.8972,250.1298,47.9389,55.0305
1.0901,0.022,-0.8994,250.1298,41.9084,54.313
1.092,0.0308,-0.9377,250.1298,35.5725,53.1679
1.1067,0.0466,-0.9563,250.1298,30.0153,51.9084
1.1123,0.064,-0.979,242.9389,24.855,50.5344
1.1167,0.0798,-0.991,233.0763,20.3969,48.5191
1.1257,0.0842,-0.9941,222.6794,16.4733,46.6489
1.1392,0.0959,-1.0007,212.1527,12.3817,44.7328
1.1533,0.1133,-0.9961,201.4046,8.4656,42.5344
1.1533,0.1294,-1.0037,190.7328,4.6718,40.6565
1.1528,0.1399,-0.9868,180.0763,0.7328,38.6183
1.1697,0.1455,-0.9875,169.7481,-2.5954,36.3282
1.1707,0.1514,-0.9771,159.6718,-5.3817,34.1221
1.1699,0.1614,-0.9702,149.9084,-8.0,32.0382
1.1692,0.1633,-0.9604,140.6947,-10.145,30.0305
1.1636,0.1587,-0.9517,132.1832,-11.9313,28.313
1.166,0.1628,-0.9436,124.3282,-13.5344,26.5573
1.1663,0.156,-0.9351,117.626,-14.7023,25.2824
1.1636,0.1504,-0.9375,108.4962,-16.1985,23.7557
1.1685,0.1357,-0.9324,102.2977,-17.3053,22.9313
1.1738,0.1121,-0.9309,96.6412,-18.0458,22.2824
1.1792,0.0874,-0.9285,91.313,-18.542,21.687
1.1797,0.0684,-0.9307,86.458,-18.8702,21.5725
1.1938,0.0581,-0.9407,82.1527,-18.8855,21.3969
1.1973,0.0635,-0.9482,77.9466,-18.5802,21.1908
1.2046,0.0671,-0.9417,73.6947,-17.8626,21.374
1.2046,0.0754,-0.9436,70.0,-16.916,21.4962
1.209,0.0891,-0.9424,66.0,-15.8931,21.4962
1.2224,0.0942,-0.9331,62.1298,-14.7176,21.687
1.2261,0.0913,-0.9475,58.6412,-13.5267,21.6565
1.2336,0.0901,-0.9397,54.9008,-12.2443,21.2443
1.2378,0.0906,-0.9292,51.0,-11.084,20.8626
1.2312,0.0999,-0.917,47.1985,-10.1832,20.3817
1.2322,0.1023,-0.9102,43.4656,-9.3817,19.4733
1.2302,0.1094,-0.9033,39.9924,-8.8244,18.3969
1.2358,0.1187,-0.8848,36.1527,-8.2443,17.5496
1.2393,0.1311,-0.8755,32.6336,-8.1145,16.5267
1.2354,0.1436,-0.8616,28.9847,-7.9313,15.0992
1.2336,0.1406,-0.8425,25.855,-7.8092,13.9695
1.2375,0.1445,-0.8342,22.6718,-7.3435,13.0458
1.2268,0.1409,-0.8174,19.7634,-6.6794,11.4122
1.23,0.1411,-0.8123,16.8931,-6.0916,10.5496
1.2324,0.1482,-0.7881,14.3206,-4.8473,9.3206
1.2234,0.1467,-0.79,11.7099,-3.771,8.2901
1.2231,0.1431,-0.7646,9.4427,-2.6565,7.4656
1.2178,0.145,-0.7498,7.1298,-1.7557,6.6412
1.2156,0.144,-0.7339,4.7863,-0.687,5.771
1.2122,0.1433,-0.7173,2.7557,0.5878,4.916
1.2046,0.1416,-0.7048,0.4504,1.8168,4.3664
1.2014,0.1311,-0.6873,-1.855,3.1908,3.4885
1.1946,0.1326,-0.6724,-3.8397,3.9847,2.6794
1.1963,0.1228,-0.6624,-6.1221,4.7939,1.9618
1.1921,0.1243,-0.6416,-8.3206,5.5649,1.1298
1.1895,0.1216,-0.6206,-10.0687,6.0992,0.4427
1.1863,0.1118,-0.606,-12.1527,6.626,-0.4122
1.1816,0.1213,-0.5935,-13.8015,6.7634,-1.2748
1.1755,0.1055,-0.5808,-15.5038,7.2061,-1.9771
1.1753,0.0964,-0.5786,-16.9237,7.7939,-2.7634
1.1714,0.0881,-0.554,-18.3359,8.145,-3.687
1.1768,0.0776,-0.5491,-19.9008,8.542,-4.084
1.1697,0.0803,-0.5461,-21.3893,8.6107,-5.0687
1.1641,0.0696,-0.5293,-23.0305,8.4733,-5.8702
1.1555,0.0715,-0.5176,-24.7023,7.9542,-6.6031
1.145,0.0696,-0.4993,-26.3893,7.0,-7.5115
1.1304,0.0649,-0.4766,-27.7786,5.6794,-8.2748
1.1318,0.0642,-0.4663,-29.5191,4.3969,-9.1832
1.1216,0.0532,-0.4441,-30.9313,2.8779,-10.4809
1.105,0.053,-0.4331,-32.2748,1.1069,-11.2824
1.1018,0.0483,-0.4141,-33.4198,-0.8321,-11.916
1.0916,0.0488,-0.3958,-34.5954,-2.7328,-12.8855
1.0806,0.0439,-0.3801,-35.5954,-4.9924,-13.2824
1.085,0.0493,-0.3745,-36.1374,-6.9237,-13.8855
1.0698,0.0588,-0.3528,-36.9084,-9.0611,-14.6718
1.0608,0.0588,-0.3516,-37.3511,-10.7481,-14.855
1.0571,0.054,-0.3406,-37.374,-12.2061,-14.8931
1.0469,0.0708,-0.3325,-37.3817,-13.4351,-14.4351
1.0505,0.0657,-0.3105,-37.1679,-13.9618,-14.3435
1.04,0.0598,-0.3115,-36.7863,-13.7634,-13.7328
1.0408,0.054,-0.3132,-36.2366,-13.6794,-13.2977
1.0342,0.054,-0.3044,-35.8473,-13.3359,-12.6565
1.0347,0.0554,-0.2983,-35.3053,-12.7023,-11.7481
1.0315,0.0498,-0.2876,-34.8015,-12.1221,-11.1832
1.0269,0.053,-0.2725,-34.2748,-11.4504,-10.3893
1.0281,0.051,-0.2639,-33.7481,-10.5344,-9.4351
1.0259,0.0583,-0.2639,-33.0,-9.6947,-8.7252
1.0229,0.0669,-0.2551,-32.5649,-8.6641,-8.0305
1.0164,0.0566,-0.2427,-32.2443,-7.7405,-7.3893
1.022,0.0659,-0.2373,-31.9008,-6.6107,-6.5267
1.0149,0.0652,-0.2373,-31.3053,-5.0534,-5.5802
1.0161,0.0676,-0.2319,-30.9008,-3.4351,-5.0534
1.0125,0.0681,-0.2366,-30.6794,-1.6641,-4.1832
1.0176,0.0669,-0.2153,-30.3435,-0.0992,-3.5191
1.0122,0.0576,-0.2141,-29.9847,1.374,-2.9542
1.0222,0.0642,-0.2083,-29.7405,2.8626,-1.9542
1.0215,0.0686,-0.2019,-29.4198,4.2672,-1.0992
1.019,0.0684,-0.1809,-29.4122,5.4962,-0.4656
1.0188,0.0723,-0.1826,-28.9237,6.7863,0.3969
1.02,0.0715,-0.1738,-28.7023,7.6641,1.145
1.0232,0.0732,-0.1658,-28.458,8.4733,1.7328
1.031,0.0776,-0.1653,-28.2061,9.2214,2.0153
1.03,0.0684,-0.1655,-28.0382,9.9084,2.4733
1.0337,0.0649,-0.1616,-28.1908,10.0153,2.6794
1.033,0.0642,-0.1548,-28.3053,9.9847,2.4351
1.0364,0.0686,-0.1509,-28.3893,9.8168,2.3206
1.0425,0.0603,-0.1436,-28.6183,9.3282,2.1298
1.0354,0.0588,-0.1362,-28.916,8.458,1.1679
1.0347,0.062,-0.134,-29.0153,7.5267,0.6794
1.0396,0.0583,-0.1301,-29.145,6.4046,-0.1145
1.0317,0.0674,-0.1199,-29.2901,5.1221,-1.0
1.0261,0.0593,-0.1223,-29.4351,3.6718,-1.7786
1.0176,0.0652,-0.1128,-29.5191,1.9313,-2.4046
1.02,0.0557,-0.1074,-29.5725,0.3817,-3.2595
1.0137,0.0608,-0.0967,-29.4351,-1.458,-3.8244
1.0044,0.0542,-0.0923,-29.2977,-3.2824,-4.3893
0.9973,0.0579,-0.0884,-29.0153,-5.2214,-4.6718
0.9854,0.0566,-0.0911,-28.687,-7.0687,-5.1069
0.988,0.0632,-0.0784,-28.5191,-9.0382,-5.1374
0.9863,0.0603,-0.0649,-27.9924,-10.9771,-5.229
0.9834,0.0674,-0.0566,-27.4198,-12.6412,-5.3282
0.9856,0.0662,-0.0647,-26.8702,-14.1679,-4.8626
0.9897,0.0696,-0.074,-26.229,-15.2366,-4.5038
0.9912,0.0688,-0.0696,-25.5802,-16.0076,-4.0916
1.0051,0.063,-0.0723,-24.9771,-16.374,-3.313
1.0142,0.0686,-0.0874,-24.3435,-16.2366,-2.8321
1.0283,0.0747,-0.0874,-23.7252,-15.313,-2.0992
1.0371,0.0796,-0.0872,-23.1679,-14.0458,-1.5573
1.0444,0.0784,-0.0908,-22.5267,-11.9313,-0.5344
1.0571,0.0876,-0.0952,-22.0229,-10.2137,-0.2214
1.063,0.093,-0.0845,-21.5725,-8.687,0.3053
1.0789,0.0906,-0.0955,-21.0229,-7.0076,0.4504
1.0896,0.0911,-0.1035,-20.7099,-5.2137,0.6107
1.0923,0.0908,-0.1025,-20.3053,-3.0153,0.6412
1.1023,0.095,-0.0928,-19.9084,-1.0076,0.4427
1.1091,0.0889,-0.0942,-19.4656,1.8931,0.2672
1.115,0.0803,-0.085,-18.626,4.0229,-0.1908
1.1116,0.0786,-0.0842,-17.8473,6.0,-0.5344
1.1101,0.0759,-0.0757,-16.9542,8.1069,-1.2214
1.1003,0.0693,-0.0613,-15.9924,9.2672,-1.4656
1.1013,0.0635,-0.0564,-15.0076,10.1221,-1.8779
1.0935,0.0691,-0.0432,-13.7557,10.5573,-2.6641
1.0828,0.0701,-0.0247,-12.7099,10.4504,-3.1679
1.0786,0.0715,-0.022,-11.5038,10.1069,-3.542
1.0691,0.0769,-0.0139,-10.5191,9.2672,-4.2214
1.0581,0.0735,-0.0093,-9.2748,8.4885,-5.0153
1.0466,0.0757,-0.0081,-7.6565,7.4122,-5.3664
1.0432,0.074,-0.0073,-6.687,6.1527,-5.4122
1.0293,0.0767,-0.0159,-5.6031,5.0687,-6.2214
1.0281,0.0801,-0.0093,-4.4046,3.8015,-6.3359
1.0225,0.0862,-0.0071,-3.5344,2.5496,-6.4656
1.0186,0.0803,-0.0083,-2.2443,1.5191,-6.374
1.0164,0.0879,-0.0254,-1.2519,0.3664,-6.4351
1.0027,0.0828,-0.0386,-0.2366,-0.8397,-6.2901
1.0027,0.0779,-0.0383,0.5191,-1.8931,-6.1145
0.9966,0.0913,-0.0505,1.5115,-2.6718,-5.6489
0.9929,0.1035,-0.0642,2.2137,-3.0382,-5.1832
0.9907,0.0952,-0.0669,2.9008,-3.4504,-4.2137
0.9915,0.1028,-0.0791,3.3893,-3.4504,-4.0153
0.9883,0.1121,-0.082,3.771,-3.4427,-3.1832
0.9885,0.1128,-0.0896,4.1069,-3.6412,-2.2901
0.9858,0.1213,-0.0947,4.5649,-3.7557,-1.5496
0.9875,0.1191,-0.0981,4.6718,-3.7405,-0.4885
0.9897,0.1262,-0.1106,5.0763,-4.0305,0.3969
0.9919,0.1182,-0.1089,5.145,-4.4656,1.3435
1.0012,0.1243,-0.1177,5.313,-4.7939,1.9542
1.0149,0.1279,-0.1194,5.2901,-4.8931,2.8626
1.0273,0.1262,-0.1147,5.3282,-4.916,3.6412
1.0337,0.1284,-0.1135,5.3053,-4.4427,3.9847
1.0454,0.1299,-0.1284,5.1374,-3.6031,4.5038
1.0605,0.1309,-0.1472,5.2519,-2.7634,4.7939
1.074,0.1299,-0.1404,5.3817,-1.542,4.9542
1.0935,0.1274,-0.1428,5.3282,-0.1908,5.0992
1.1011,0.1289,-0.1558,5.5725,1.5115,4.7405
1.1042,0.1223,-0.1572,5.7557,3.1603,4.3664
1.1147,0.1223,-0.1592,5.771,4.771,3.8321
1.113,0.1223,-0.1523,6.0687,6.2061,3.5573
1.1196,0.1196,-0.1597,6.0076,7.3817,2.9084
1.1221,0.1262,-0.1575,6.4656,8.2901,2.3893
1.1255,0.1179,-0.1523,6.4885,8.9924,2.2595
1.1274,0.1255,-0.1631,6.458,9.7176,1.6183
1.1257,0.127,-0.1704,6.4198,10.145,0.9313
1.1323,0.1292,-0.1704,6.313,10.6718,0.4962
1.1243,0.1238,-0.1777,6.145,10.771,-0.374
1.1201,0.135,-0.1777,5.7557,10.5115,-1.1756
1.1238,0.1204,-0.1877,5.3359,10.8321,-2.2901
1.1187,0.1196,-0.1965,4.8702,11.1756,-3.0305
1.1125,0.1135,-0.199,4.4275,11.5573,-4.0229
1.1069,0.1089,-0.2146,4.0,11.7099,-4.9924
1.0986,0.0994,-0.1963,3.3588,11.5802,-5.7557
1.085,0.0989,-0.1885,2.9084,10.7863,-6.374
1.0618,0.1072,-0.1768,2.2061,9.687,-6.4962
1.0454,0.1064,-0.175,1.8626,7.8931,-6.313
1.0327,0.1084,-0.1597,1.2443,5.9771,-6.6183
1.0183,0.105,-0.156,0.7786,3.6031,-6.2748
1.0063,0.1099,-0.1455,0.3435,1.229,-6.1221
1.0032,0.1038,-0.1577,-0.229,-1.0458,-5.626
0.9897,0.0942,-0.134,-0.3511,-3.2061,-5.2824
0.9885,0.0947,-0.1399,-0.5191,-5.3893,-4.458
0.9844,0.0957,-0.1375,-0.5802,-8.0458,-3.8168
0.9736,0.0964,-0.1311,-0.5649,-10.3359,-3.1985
0.9736,0.0974,-0.1372,-0.4122,-12.313,-2.1679
0.9785,0.0959,-0.1233,-0.4198,-14.542,-1.2366
0.9875,0.1008,-0.1311,-0.3359,-16.6794,-0.2443
0.9893,0.1008,-0.1348,-0.3282,-18.2977,0.6107
0.9907,0.1052,-0.1406,-0.5725,-19.3817,1.5878
1.0015,0.1055,-0.1572,-0.4656,-20.2443,2.3282
1.0146,0.1099,-0.1619,-0.8321,-21.0611,3.1374
1.0225,0.1125,-0.1716,-1.1527,-21.4733,3.7863
1.0366,0.1133,-0.175,-1.7252,-21.626,4.2672
1.041,0.1108,-0.1836,-1.6565,-21.4656,4.7863
