ax,ay,az,gx,gy,gz
1.4458,0.1667,0.0647,-1.0305,-23.5573,-22.626
1.4966,0.1531,0.0693,-0.8015,-27.0534,-25.2519
1.5483,0.1355,0.0825,-0.8168,-30.7481,-28.7557
1.6501,0.1118,0.0952,0.0534,-35.3435,-32.8168
1.7244,0.0979,0.0977,0.9237,-41.5878,-37.7099
1.7996,0.0854,0.116,1.5725,-47.0153,-43.229
1.8652,0.0725,0.1123,2.229,-51.9084,-48.5115
1.8943,0.0581,0.0999,3.0916,-56.3588,-54.2672
1.9999,0.0403,0.1167,3.6947,-64.0153,-61.6412
1.9999,0.0298,0.1255,4.0382,-71.3206,-70.2824
1.9999,0.0151,0.1079,4.2748,-75.5267,-79.9924
1.9999,-0.0144,0.1226,4.542,-79.916,-91.8855
1.9999,-0.0342,0.1016,4.8015,-83.3588,-102.7786
1.9999,-0.0571,0.0737,5.0992,-84.4427,-114.9466
1.9999,-0.0737,0.0728,5.6031,-85.3817,-128.0687
1.9999,-0.0986,0.0562,5.7939,-85.3969,-140.9618
1.9999,-0.1055,0.0522,5.8626,-84.6565,-153.4275
1.9999,-0.1052,0.0615,6.0382,-84.0687,-166.1756
1.9999,-0.1079,0.0559,6.4962,-83.4962,-178.3435
1.9999,-0.1169,0.0696,7.0076,-82.3817,-189.8931
1.9999,-0.1099,0.0732,7.6718,-80.8244,-201.0687
1.9999,-0.104,0.075,8.5191,-79.4198,-212.5649
1.9999,-0.0979,0.0662,9.4275,-77.0382,-222.5496
1.9999,-0.0962,0.0557,10.5038,-73.4809,-232.4809
1.9999,-0.0942,0.0449,11.7023,-69.4427,-241.4733
1.9999,-0.105,0.0374,12.7176,-63.4733,-250.1374
1.9999,-0.1021,0.0117,13.5802,-56.9084,-250.1374
1.9999,-0.1025,-0.0029,14.7557,-49.2366,-250.1374
1.9999,-0.1133,-0.0112,15.8473,-40.9008,-250.1374
1.9999,-0.1106,-0.0146,17.0229,-32.3588,-250.1374
1.9999,-0.1016,-0.0425,18.3435,-23.3282,-250.1374
1.9999,-0.0884,-0.0566,19.5649,-14.2748,-250.1374
1.9999,-0.085,-0.0618,20.9084,-6.1832,-250.1374
1.9999,-0.0649,-0.0801,21.7634,2.8626,-250.1374
1.9999,-0.0637,-0.0876,22.4427,10.2366,-250.1374
1.9999,-0.0491,-0.083,22.0763,17.3206,-250.1374
1.9999,-0.0398,-0.1028,21.4504,24.8244,-250.1374
1.9999,-0.0896,-0.1514,21.1069,32.7481,-250.1374
1.9999,-0.1118,-0.1709,20.3588,39.8931,-250.1374
1.9999,-0.1094,-0.1919,19.7099,45.8015,-250.1374
1.9999,-0.0972,-0.1992,19.1145,50.3282,-250.1374
1.9999,-0.094,-0.209,17.7786,53.9924,-250.1374
1.9999,-0.0793,-0.2241,16.4886,57.1603,-250.1374
1.9999,-0.1023,-0.2229,14.5725,60.3588,-250.1374
1.9999,-0.1323,-0.2251,12.5191,61.9237,-250.1374
1.9999,-0.1553,-0.2275,10.0611,62.4962,-250.1374
1.9999,-0.1819,-0.2104,7.5802,61.5038,-250.1374
1.9999,-0.197,-0.2019,4.8702,58.6412,-250.1374
1.9999,-0.2192,-0.1794,2.1298,55.145,-250.1374
1.9999,-0.2263,-0.1829,-0.8321,50.9618,-250.1374
1.9999,-0.2458,-0.1892,-3.542,46.7252,-250.1374
1.9999,-0.2717,-0.1912,-5.8702,43.8244,-250.1374
1.9999,-0.2964,-0.2141,-8.2901,42.6641,-250.1374
1.9999,-0.3315,-0.2285,-10.4962,43.6107,-250.1374
1.9999,-0.3501,-0.2524,-12.2366,46.4733,-250.1374
1.9999,-0.3652,-0.2747,-13.9466,51.7328,-250.1374
1.9999,-0.3704,-0.2791,-15.6794,58.6412,-250.1374
1.9999,-0.3652,-0.2578,-16.7176,67.6641,-250.1374
1.9712,-0.3613,-0.2351,-17.4046,75.0229,-250.1374
1.8879,-0.3589,-0.2244,-17.5038,81.6107,-250.1374
1.7983,-0.3398,-0.2212,-17.2061,89.0916,-250.1374
1.7124,-0.3271,-0.2158,-16.0611,96.5725,-250.1374
1.6704,-0.3142,-0.1885,-14.6947,103.145,-250.1374
1.5833,-0.2952,-0.1711,-12.6107,109.5573,-250.1374
1.48,-0.2778,-0.1533,-10.374,115.9084,-250.1374
1.3772,-0.2437,-0.1243,-8.1221,122.0763,-250.1374
1.2607,-0.2173,-0.1101,-5.1527,129.2443,-250.1374
1.1567,-0.1831,-0.0977,-2.2824,136.7099,-250.1374
1.0396,-0.1514,-0.0667,1.2748,143.1832,-250.1374
0.9343,-0.1213,-0.0405,5.0153,149.0305,-250.1374
0.8228,-0.0889,-0.0295,9.0763,153.9084,-250.1374
0.7649,-0.0708,-0.0212,13.4504,157.9924,-250.1374
0.6685,-0.0452,-0.0066,17.9237,160.7786,-250.1374
0.5659,-0.0193,0.0027,22.5954,161.9466,-250.1374
0.4753,0.011,0.0225,27.5344,160.9084,-250.1374
0.3723,0.0513,0.0173,32.3969,159.2977,-250.1374
0.2817,0.0999,0.0115,37.3969,156.8779,-250.1374
0.2104,0.1304,0.0039,42.1679,154.1756,-250.1374
0.1309,0.1382,0.0178,46.5878,149.2214,-250.1374
0.0974,0.1543,0.0225,50.3969,143.8092,-250.1374
0.0386,0.1675,0.0112,53.855,137.374,-250.1374
-0.0154,0.1758,0.0039,56.8702,129.5649,-250.1374
-0.0642,0.2056,-0.0037,59.6641,120.6031,-250.1374
-0.0986,0.2209,-0.0278,61.8321,111.0,-250.1374
-0.1301,0.2402,-0.0413,63.8092,100.7863,-250.1374
-0.1746,0.2766,-0.0627,65.0763,90.9008,-250.1374
-0.2068,0.3054,-0.0801,66.3053,81.2672,-250.1374
-0.2354,0.3555,-0.1082,67.2672,71.7786,-250.1374
-0.2556,0.3752,-0.1182,67.8931,64.2901,-250.1374
-0.3015,0.4087,-0.1375,68.4962,57.6183,-250.1374
-0.3315,0.4458,-0.1543,68.6107,51.8626,-250.1374
-0.3643,0.4858,-0.175,68.7557,46.7786,-250.1374
-0.3972,0.5129,-0.1824,68.7099,42.3282,-250.1374
-0.4263,0.5388,-0.1895,67.8092,38.1908,-250.1374
-0.47,0.561,-0.2297,67.1527,34.5573,-250.1374
-0.5103,0.5869,-0.2271,66.2748,31.687,-250.1374
-0.5317,0.6045,-0.22,65.4504,29.1298,-250.1374
-0.5728,0.6267,-0.2322,64.4427,26.1756,-250.1374
-0.6165,0.6387,-0.2373,63.5344,23.6031,-250.1374
-0.6426,0.6616,-0.2229,62.2748,21.0076,-250.1374
-0.6802,0.667,-0.2129,60.7328,17.3511,-250.1374
-0.7151,0.689,-0.1963,59.3511,12.8473,-250.1374
-0.7224,0.6902,-0.168,57.8092,7.3817,-250.1374
-0.7378,0.6997,-0.157,56.4504,0.3359,-250.1374
-0.7307,0.6951,-0.1387,54.855,-7.855,-250.1374
-0.7329,0.6953,-0.1252,53.3511,-17.0229,-250.1374
-0.7148,0.687,-0.1267,52.0305,-27.4122,-250.1374
-0.6951,0.6853,-0.125,50.6107,-37.5649,-250.1374
-0.6653,0.6794,-0.126,49.7481,-47.5191,-250.1374
-0.6433,0.6711,-0.1384,48.4962,-56.0916,-250.1374
-0.6086,0.675,-0.1533,47.4046,-62.8626,-250.1374
-0.5779,0.6824,-0.1426,45.7328,-68.1298,-250.1374
-0.543,0.687,-0.1646,44.084,-70.4046,-250.1374
-0.502,0.6912,-0.1743,42.7939,-69.8931,-250.1374
-0.4607,0.6814,-0.196,41.374,-66.4657,-250.1374
-0.4331,0.6812,-0.209,39.9695,-61.5115,-250.1374
-0.4041,0.6536,-0.2378,38.7557,-54.4198,-248.5038
-0.3818,0.6396,-0.2439,37.4046,-46.4198,-244.8473
-0.3679,0.624,-0.2612,36.3435,-37.5802,-241.5496
-0.3542,0.6018,-0.2627,35.0076,-28.7328,-238.0153
-0.3577,0.5928,-0.2659,33.8931,-19.7176,-234.8702
-0.3547,0.5876,-0.2598,32.9084,-10.9618,-231.4122
-0.354,0.5796,-0.2568,31.5114,-2.8321,-228.0229
-0.3669,0.5491,-0.2393,30.4504,4.5649,-224.4962
-0.3745,0.5193,-0.2234,28.9847,10.3206,-221.6488
-0.3928,0.5034,-0.2249,28.0763,14.8779,-218.5343
-0.4028,0.4873,-0.2151,27.0611,18.7634,-215.687
-0.4419,0.4778,-0.2048,26.6489,21.7328,-213.2595
-0.4463,0.4729,-0.2012,26.4275,23.626,-210.9542
-0.4668,0.4614,-0.175,26.2519,24.8015,-208.0229
-0.4836,0.4556,-0.1655,26.4656,24.8855,-205.8244
-0.5178,0.4441,-0.1646,26.7023,24.8855,-203.916
-0.5332,0.4263,-0.1543,26.7328,25.0992,-201.8015
-0.5649,0.4167,-0.1372,27.0687,25.0,-199.8397
-0.5962,0.4143,-0.1475,27.5191,25.2443,-197.8702
-0.6116,0.3967,-0.1355,27.771,24.916,-195.542
-0.6306,0.3923,-0.1326,27.9618,24.6565,-193.5191
-0.6519,0.3801,-0.1189,28.542,24.3206,-190.6641
-0.6809,0.3716,-0.115,29.0916,23.9084,-187.9771
-0.7007,0.3574,-0.1113,29.7863,23.5038,-184.9618
-0.7317,0.3538,-0.104,30.6489,22.916,-182.1221
-0.7539,0.3474,-0.0999,31.7634,22.8626,-178.4962
-0.781,0.3462,-0.082,32.7176,22.7099,-174.626
-0.8088,0.3328,-0.0762,33.9771,22.3893,-171.1145
-0.8308,0.3313,-0.0706,35.5038,22.0305,-167.3206
-0.8411,0.3276,-0.0598,37.1832,21.7099,-163.0763
-0.8586,0.3228,-0.0503,39.0153,20.6031,-158.9389
-0.8875,0.3206,-0.0396,40.9389,19.2901,-154.7481
-0.9082,0.3088,-0.0366,43.2748,17.0076,-150.4886
-0.917,0.3071,-0.0325,45.7023,14.1756,-146.3435
-0.9426,0.2888,-0.0229,47.9389,10.8397,-142.374
-0.9583,0.2888,-0.0181,50.4122,7.2214,-138.4733
-0.9741,0.2734,-0.0259,52.8626,2.8855,-134.6412
-0.9839,0.2703,-0.0266,55.1298,-1.1298,-131.2748
-0.9841,0.272,-0.032,57.4504,-5.9771,-127.4657
-1.002,0.2737,-0.0273,59.7634,-10.8015,-124.0076
-1.0129,0.2739,-0.0325,61.6489,-15.5496,-120.9237
-1.0156,0.2673,-0.0325,63.7405,-20.8015,-117.7328
-1.0308,0.2678,-0.0376,65.6641,-26.0916,-114.3511
-1.0374,0.27,-0.0579,67.1756,-31.1908,-111.4351
-1.04,0.2622,-0.0581,68.7252,-36.0763,-108.0687
-1.0347,0.2561,-0.0671,70.0382,-40.3817,-105.1145
-1.0471,0.2583,-0.0803,71.2519,-44.9771,-102.0305
-1.0476,0.2549,-0.0996,72.4427,-48.7863,-99.2748
-1.0496,0.2678,-0.1108,73.0992,-52.2672,-94.8397
-1.0513,0.2617,-0.1201,73.8702,-55.4962,-91.2519
-1.0562,0.2708,-0.1438,74.0687,-57.3969,-89.7405
-1.0566,0.2705,-0.1675,74.5038,-58.5496,-85.2519
-1.0532,0.2642,-0.1926,74.6947,-58.9924,-81.0076
-1.0664,0.2705,-0.2307,74.8855,-58.855,-77.1221
-1.0667,0.2812,-0.2625,74.313,-57.5725,-72.5878
-1.0659,0.2776,-0.29,73.8931,-55.1298,-67.8702
-1.0828,0.2903,-0.3101,73.2519,-52.1527,-62.9618
-1.0889,0.2964,-0.3333,72.3511,-48.5038,-57.8168
-1.0911,0.2925,-0.3394,70.7328,-44.2595,-52.4962
-1.1033,0.3057,-0.3706,69.2443,-39.7557,-47.2672
-1.1189,0.3147,-0.3923,67.3435,-34.2824,-41.8779
-1.1367,0.3325,-0.3992,65.4427,-28.9771,-36.1374
-1.156,0.3469,-0.4023,63.0687,-23.458,-30.229
-1.1799,0.3572,-0.4072,60.2748,-17.9237,-24.5573
-1.2031,0.3645,-0.4241,57.6412,-11.9542,-18.3206
-1.2256,0.3667,-0.4163,54.687,-6.2595,-12.145
-1.2354,0.3682,-0.4253,51.7863,-0.6794,-5.7481
-1.2581,0.3701,-0.4263,48.8015,5.0916,1.2443
-1.2832,0.366,-0.4219,46.0,10.313,8.2061
-1.3096,0.3579,-0.4275,43.3206,15.1679,15.3893
-1.3269,0.3525,-0.4285,40.4885,19.4504,22.3282
-1.356,0.3511,-0.4292,37.6031,23.4962,29.687
-1.3748,0.3437,-0.4243,34.9466,27.1069,37.0458
-1.3918,0.3386,-0.4199,32.2824,30.145,44.4198
-1.4006,0.3335,-0.4236,29.6336,32.5649,51.6794
-1.4229,0.3254,-0.4231,26.8244,35.0687,59.8931
-1.428,0.3113,-0.4258,24.1832,36.6718,67.3664
-1.4399,0.3157,-0.4067,21.5802,37.9237,74.8015
-1.4434,0.3018,-0.4192,18.7786,38.9695,82.2977
-1.4575,0.293,-0.4187,16.1527,39.7634,89.6336
-1.4553,0.2842,-0.4062,13.7328,40.626,96.8321
-1.4646,0.2734,-0.4082,11.1985,41.5344,103.5954
-1.4697,0.2617,-0.4089,8.8015,42.8015,110.4122
-1.4658,0.2629,-0.4202,6.7328,43.7557,117.374
-1.4641,0.2505,-0.4209,4.4809,45.1527,124.2824
-1.4736,0.2407,-0.4268,2.5115,46.8015,131.3664
-1.4829,0.2341,-0.4326,0.7252,49.0992,138.4962
-1.49,0.2271,-0.4214,-1.2443,50.8168,145.2824
-1.498,0.2056,-0.4282,-3.1298,52.9695,152.1908
-1.5049,0.189,-0.428,-4.9847,54.8015,159.1298
-1.5103,0.1794,-0.4382,-6.8626,56.2595,166.3664
-1.5215,0.1665,-0.428,-8.7863,56.5802,173.2595
-1.5203,0.1589,-0.425,-11.0305,56.4962,180.8092
-1.5332,0.1506,-0.4114,-13.145,55.2137,188.4733
-1.5337,0.1394,-0.4031,-14.9924,52.7863,196.374
-1.5261,0.1348,-0.386,-17.2824,49.8168,204.1832
-1.5244,0.1182,-0.3779,-19.3664,45.4351,211.916
-1.5183,0.1101,-0.3733,-21.5573,40.6641,219.542
-1.498,0.0925,-0.3579,-23.3969,35.3969,227.3969
-1.4866,0.0813,-0.356,-25.4962,29.8626,234.7939
-1.4736,0.0679,-0.3689,-27.1527,24.0305,242.2824
-1.4514,0.0625,-0.354,-28.9084,18.2061,249.6412
-1.4194,0.0476,-0.3494,-30.2137,12.7405,250.1298
-1.3914,0.0391,-0.3601,-31.8702,6.4962,250.1298
-1.3599,0.0239,-0.3542,-33.0,1.7176,250.1298
-1.3276,0.0159,-0.3672,-34.0382,-2.2519,250.1298
-1.3066,0.0073,-0.363,-34.7634,-5.8702,250.1298
-1.2751,0.0051,-0.3745,-35.2137,-8.6794,250.1298
-1.2354,-0.0068,-0.3772,-36.0534,-10.9847,250.1298
-1.2043,-0.0146,-0.3872,-36.458,-13.1832,250.1298
-1.1636,-0.0251,-0.4033,-36.8702,-14.9618,250.1298
-1.1328,-0.0359,-0.4067,-37.6183,-15.8702,250.1298
-1.1228,-0.0403,-0.405,-38.313,-16.7099,250.1298
-1.0945,-0.0347,-0.4143,-38.771,-17.8168,250.1298
-1.0608,-0.0444,-0.4207,-39.771,-18.2061,250.1298
-1.0308,-0.0422,-0.4392,-40.5649,-18.5573,250.1298
-0.9993,-0.0476,-0.4543,-41.7252,-18.5114,250.1298
-0.9768,-0.0483,-0.4641,-42.771,-17.9695,250.1298
-0.9556,-0.053,-0.4849,-44.1908,-16.8473,250.1298
-0.9319,-0.0557,-0.4949,-45.6641,-15.2595,250.1298
-0.9221,-0.0662,-0.5027,-47.1756,-13.2443,250.1298
-0.9067,-0.0691,-0.5037,-49.229,-11.2977,250.1298
-0.887,-0.0779,-0.5183,-51.4656,-8.9313,250.1298
-0.8608,-0.0872,-0.5173,-53.6641,-6.6565,250.1298
-0.8513,-0.0962,-0.5266,-56.0534,-4.4962,250.1298
-0.8354,-0.1135,-0.5237,-58.7328,-2.3359,250.1298
-0.8188,-0.1243,-0.5122,-61.6412,-0.7023,250.1298
-0.7988,-0.1304,-0.5217,-64.6718,0.9771,250.1298
-0.7856,-0.1462,-0.5098,-68.0534,2.7939,250.1298
-0.7676,-0.1536,-0.5112,-71.0687,4.5191,250.1298
-0.7488,-0.1633,-0.509,-74.7328,5.9313,250.1298
-0.7222,-0.1812,-0.4983,-78.3664,7.9313,250.1298
-0.7034,-0.1995,-0.49,-81.9313,9.9313,250.1298
-0.6799,-0.2129,-0.4934,-85.4046,12.3969,250.1298
-0.6638,-0.2334,-0.4946,-89.0763,15.5191,250.1298
-0.6462,-0.2505,-0.49,-92.2137,19.1756,250.1298
-0.6304,-0.2681,-0.4912,-95.6183,23.6718,250.1298
-0.6248,-0.2778,-0.4941,-98.7939,28.2519,250.1298
-0.6111,-0.3,-0.4863,-101.9771,33.3206,250.1298
-0.6006,-0.3188,-0.4641,-105.3206,37.9084,250.1298
-0.5977,-0.3281,-0.4429,-108.3511,41.8092,250.1298
-0.5881,-0.3469,-0.4153,-111.3511,45.9008,250.1298
-0.5889,-0.3647,-0.3796,-114.4351,49.0687,250.1298
-0.5872,-0.375,-0.3457,-117.229,51.4962,250.1298
-0.5793,-0.3965,-0.3127,-119.8092,53.4198,250.1298
-0.5852,-0.4146,-0.2957,-121.916,54.6641,250.1298
-0.5898,-0.4355,-0.2793,-124.3053,55.5191,250.1298
-0.592,-0.4646,-0.2451,-125.8779,56.1527,250.1298
-0.5991,-0.4839,-0.2175,-127.6031,56.4809,250.1298
-0.584,-0.5171,-0.1658,-128.5267,55.6641,250.1298
-0.5911,-0.5476,-0.1445,-129.3969,54.4122,250.1298
-0.5854,-0.5813,-0.1182,-130.1298,52.3664,250.1298
-0.5762,-0.6106,-0.0901,-130.3359,49.8931,250.1298
-0.5698,-0.646,-0.0598,-130.4351,46.7405,250.1298
-0.5674,-0.6631,-0.0435,-130.2595,42.4504,250.1298
-0.55,-0.7075,-0.0151,-129.8015,37.458,250.1298
-0.5352,-0.7556,0.0181,-129.1908,31.4351,250.1298
-0.5171,-0.8005,0.0464,-128.458,24.916,250.1298
-0.4832,-0.8474,0.0728,-127.2672,15.0763,250.1298
-0.4268,-0.9316,0.1277,-125.8855,3.5038,250.1298
-0.3796,-0.9895,0.165,-124.2366,-9.9924,250.1298
-0.3286,-1.0505,0.2183,-122.6641,-25.1679,250.1298
-0.2673,-1.114,0.2761,-120.5649,-42.855,250.1298
-0.2019,-1.1792,0.2983,-117.5954,-61.4427,250.1298
-0.167,-1.2024,0.3118,-114.2137,-80.0916,250.1298
-0.0967,-1.25,0.3198,-109.2519,-102.4427,250.1298
-0.0161,-1.3086,0.3176,-103.3664,-122.2214,250.1298
0.062,-1.3621,0.2971,-97.1985,-142.6031,250.1298
0.1526,-1.4163,0.2903,-90.1298,-161.8779,250.1298
0.2495,-1.4573,0.2817,-83.1985,-180.2137,250.1298
0.3345,-1.4895,0.2642,-75.5878,-196.6031,250.1298
0.4238,-1.5122,0.2351,-67.9618,-211.2824,250.1298
0.4712,-1.5242,0.2271,-60.6718,-223.1298,250.1298
0.5791,-1.5483,0.2231,-52.0763,-235.7328,250.1298
0.6875,-1.5527,0.1877,-43.8015,-246.5267,250.1298
0.7927,-1.5686,0.1599,-35.6718,-250.1374,250.1298
0.9048,-1.5754,0.1211,-27.6412,-250.1374,250.1298
1.0166,-1.5813,0.084,-19.3511,-250.1374,250.1298
1.1304,-1.5774,0.0549,-11.542,-250.1374,250.1298
1.2637,-1.5713,-0.0042,-4.0229,-250.1374,250.1298
1.3909,-1.5598,-0.0452,3.5191,-250.1374,250.1298
1.4587,-1.553,-0.0679,10.7939,-250.1374,250.1298
1.5947,-1.5505,-0.1096,17.7252,-250.1374,250.1298
1.7385,-1.5288,-0.1765,24.1908,-250.1374,250.1298
1.8818,-1.5061,-0.24,30.7405,-250.1374,250.1298
1.9999,-1.4534,-0.3149,36.7328,-250.1374,250.1298
1.9999,-1.3933,-0.3813,42.4733,-250.1374,250.1298
1.9999,-1.3313,-0.4363,47.3817,-237.4275,250.1298
1.9999,-1.2671,-0.4832,51.1374,-220.0,250.1298
1.9999,-1.2297,-0.4961,54.1908,-199.3435,250.1298
1.9999,-1.1692,-0.5498,55.8244,-176.7557,250.1298
1.9999,-1.115,-0.5762,56.229,-150.7786,250.1298
1.9999,-1.0635,-0.5713,55.4198,-126.5115,250.1298
1.9999,-0.9819,-0.6018,53.7939,-99.8931,250.1298
1.9999,-0.9045,-0.6421,51.4656,-72.0992,250.1298
1.9999,-0.8562,-0.6506,48.0534,-43.3206,250.1298
1.9999,-0.8276,-0.6545,44.1145,-15.3053,250.1298
1.9999,-0.8164,-0.6401,40.0763,9.5191,250.1298
1.9999,-0.7756,-0.6001,35.0458,34.6107,250.1298
1.9999,-0.7456,-0.6038,30.3893,57.542,250.1298
1.9999,-0.7021,-0.6274,26.1908,83.084,250.1298
1.9999,-0.6702,-0.5994,22.1679,107.8321,250.1298
1.9999,-0.6743,-0.5288,18.2901,127.626,250.1298
1.9999,-0.6648,-0.5007,14.6107,145.7557,250.1298
1.9999,-0.6655,-0.4524,11.3969,162.8244,250.1298
1.9934,-0.6846,-0.3845,8.0534,175.4657,250.1298
1.9456,-0.6941,-0.3684,5.2519,185.458,250.1298
1.8696,-0.7158,-0.3154,2.3053,193.6565,250.1298
1.7896,-0.7397,-0.241,-0.2519,198.3359,250.1298
1.7183,-0.7554,-0.1897,-2.5038,200.3588,250.1298
1.6567,-0.7771,-0.1204,-5.0076,200.5114,250.1298
1.5945,-0.8054,-0.0447,-7.8779,195.916,250.1298
1.5483,-0.8276,0.0125,-10.0763,188.6794,250.1298
1.5076,-0.8569,0.0862,-12.2366,177.4733,250.1298
1.4844,-0.8894,0.1602,-14.313,162.3664,250.1298
1.4878,-0.9182,0.2236,-15.6489,145.1908,250.1298
1.4905,-0.9607,0.2788,-17.0611,125.6183,250.1298
1.5161,-0.9971,0.3179,-17.7786,104.2519,250.1298
1.5413,-1.0398,0.3401,-18.5344,80.8015,250.1298
1.5828,-1.0684,0.3608,-19.0229,56.7328,250.1298
1.6418,-1.0889,0.3677,-18.7328,32.2901,250.1298
1.7061,-1.1055,0.3833,-18.0992,8.626,250.1298
1.7434,-1.1118,0.3735,-17.8321,-14.6489,250.1298
1.8164,-1.1218,0.3647,-17.1298,-37.3511,250.1298
1.8926,-1.1245,0.353,-16.3359,-59.0534,250.1298
1.9871,-1.1282,0.343,-15.3206,-79.6031,250.1298
1.9999,-1.1069,0.3259,-13.9695,-98.313,250.1298
1.9999,-1.0947,0.2993,-12.855,-117.0916,250.1298
1.9999,-1.082,0.2649,-11.542,-133.7481,250.1298
1.9999,-1.0544,0.2214,-10.2519,-149.0916,250.1298
1.9999,-1.0447,0.2043,-9.0,-162.1069,250.1298
1.9999,-1.02,0.1558,-8.1069,-172.3817,250.1298
1.9999,-0.998,0.1028,-7.3282,-179.1603,246.6031
1.9999,-0.9683,0.0479,-6.6641,-181.5038,235.9771
1.9999,-0.9299,-0.0212,-6.1374,-179.5954,225.5573
1.9999,-0.8977,-0.085,-5.9847,-173.0153,215.1908
1.9999,-0.8801,-0.1487,-6.0,-161.374,204.7557
1.9999,-0.8489,-0.2126,-6.374,-145.4275,193.8168
1.9999,-0.8396,-0.2268,-6.7634,-128.2061,184.0458
1.9999,-0.8149,-0.2654,-7.9084,-105.1679,172.9008
1.9999,-0.793,-0.2993,-8.7252,-81.8015,162.5114
1.9999,-0.7776,-0.3064,-9.9084,-55.4351,151.7405
1.9999,-0.7703,-0.3091,-10.9389,-29.0534,140.626
1.9999,-0.7595,-0.2937,-11.9389,-3.1527,130.0153
1.9999,-0.7461,-0.25,-13.0534,21.9847,119.374
1.9999,-0.7329,-0.209,-13.9237,44.8321,108.7176
1.9999,-0.7212,-0.157,-14.0687,65.9237,98.4275
1.9999,-0.7163,-0.1292,-14.1145,84.7786,89.0076
1.9999,-0.7124,-0.0879,-13.458,101.5343,80.1527
1.9999,-0.6992,-0.0569,-12.5802,115.9542,72.2748
1.9999,-0.6941,-0.009,-10.9542,127.8855,65.2977
1.9999,-0.6833,0.0176,-8.9695,137.4886,59.3206
1.9999,-0.6902,0.051,-6.9389,144.5954,54.4275
1.9999,-0.6843,0.0808,-4.3359,149.5954,49.9924
1.9999,-0.6875,0.1064,-1.5267,153.084,46.5649
1.9999,-0.6797,0.1128,1.2366,154.3206,44.0
1.9999,-0.6694,0.1245,4.1069,153.9924,41.5878
1.9999,-0.6638,0.1353,6.9466,152.084,40.4733
1.9519,-0.6494,0.1357,9.7786,148.1069,39.8779
1.8787,-0.6331,0.1555,12.4198,141.7099,39.6031
1.7932,-0.6101,0.1729,14.6794,133.687,40.1908
1.7349,-0.5986,0.1702,16.5114,123.5191,40.9771
1.689,-0.5791,0.1841,18.084,111.8626,42.2061
1.6567,-0.5635,0.188,19.1527,99.313,43.7176
1.6194,-0.5442,0.1738,19.9008,84.9695,45.458
1.6006,-0.5259,0.1707,20.2748,71.6031,46.5191
1.5901,-0.5085,0.1531,20.2595,58.4504,47.6947
1.5825,-0.4868,0.1353,19.9389,46.0305,48.6565
1.5879,-0.4739,0.1135,19.6031,34.916,48.8473
1.5964,-0.4622,0.0845,18.6794,25.0305,48.916
1.615,-0.4485,0.0522,17.8244,14.7557,48.6947
1.6338,-0.439,0.0217,16.7939,8.3282,47.4885
1.6555,-0.4341,0.0012,15.6641,3.4809,46.0611
1.6741,-0.4202,-0.0081,14.313,-0.4504,44.458
1.696,-0.406,-0.0276,13.2824,-3.313,42.5191
1.7085,-0.3943,-0.043,11.9389,-4.8397,40.3359
1.7197,-0.3909,-0.042,10.5573,-5.7252,38.1756
1.7295,-0.3794,-0.0503,9.145,-5.7405,35.3893
1.7371,-0.3696,-0.0498,7.6794,-5.1679,32.4198
1.7461,-0.3677,-0.0376,6.1298,-4.8015,29.4046
1.7458,-0.3669,-0.0334,4.7252,-3.7939,26.9771
1.7427,-0.3669,-0.0308,3.7176,-2.6412,23.8244
1.7368,-0.3633,-0.0137,2.3893,-1.1374,20.7481
1.7288,-0.3711,-0.012,1.3511,0.6107,17.8626
1.7251,-0.3728,-0.0051,0.4351,2.626,15.1908
1.7031,-0.3789,0.0,-0.4046,5.229,11.6031
1.6794,-0.3821,0.002,-1.1603,7.6794,8.9237
1.6514,-0.3865,0.021,-1.8702,9.8168,6.0992
1.6282,-0.3945,0.0461,-2.1985,11.0992,3.1832
1.6013,-0.3965,0.0479,-2.6718,12.1145,0.8626
1.5764,-0.3916,0.0818,-2.6718,12.6183,-1.626
1.5488,-0.3923,0.0942,-2.5191,12.5344,-3.9847
1.5107,-0.3977,0.0959,-2.7634,11.6718,-6.1985
1.4973,-0.3997,0.0994,-2.4656,11.145,-8.6336
1.4736,-0.408,0.1099,-2.1679,10.542,-11.0382
1.4346,-0.4067,0.1013,-2.0382,9.8473,-13.2214
1.3979,-0.4167,0.1008,-1.5725,9.7405,-15.2137
1.3718,-0.4204,0.1016,-1.4351,9.6641,-17.4656
1.344,-0.426,0.1033,-0.9771,9.0458,-18.9084
1.3044,-0.4202,0.1021,-0.5191,8.7328,-19.9466
1.2688,-0.4238,0.1025,0.0153,8.3893,-21.2519
1.2524,-0.4163,0.1033,0.6565,7.771,-22.0992
1.2163,-0.4075,0.1187,1.7557,6.3969,-21.9695
1.1831,-0.4075,0.1116,2.5191,4.6641,-21.4656
1.1521,-0.4004,0.1201,3.6718,2.6183,-20.8168
1.1406,-0.3892,0.1213,5.0534,0.0687,-19.5649
1.1111,-0.3821,0.1306,6.1221,-2.7939,-17.7634
1.0989,-0.3733,0.1123,7.6794,-5.5344,-16.0076
1.0879,-0.3679,0.1028,9.229,-8.2137,-13.9924
1.082,-0.3621,0.1089,10.7786,-10.542,-12.0229
1.0811,-0.355,0.0859,12.6107,-12.2748,-9.8779
1.0835,-0.3535,0.0679,14.4427,-13.6336,-8.1145
1.0833,-0.3552,0.0559,16.1069,-14.1679,-6.4351
1.0801,-0.3511,0.0288,18.1908,-14.2977,-5.0458
1.0815,-0.3464,0.0205,19.8931,-14.1374,-4.0382
1.0847,-0.3352,0.0012,21.4733,-13.2366,-2.8397
1.0925,-0.3247,-0.0186,23.1145,-12.9618,-1.9466
1.0854,-0.3184,-0.0212,24.2824,-12.5496,-1.4122
1.0879,-0.3088,-0.0239,25.374,-12.5878,-0.9084
1.0962,-0.2964,-0.0354,26.2824,-13.145,-0.4046
1.0991,-0.2839,-0.0417,27.5038,-14.2595,-0.0153
1.104,-0.2739,-0.0471,28.1145,-14.9466,0.0458
1.1138,-0.27,-0.0625,28.084,-15.9542,-0.0763
1.1208,-0.2666,-0.0618,28.2443,-16.5649,-0.3282
1.1279,-0.2625,-0.0781,28.2137,-17.1756,-0.6412
1.1396,-0.2515,-0.0945,28.0687,-17.1603,-1.0305
1.1438,-0.249,-0.1179,27.687,-16.8092,-1.4504
1.1516,-0.2378,-0.1335,27.1679,-15.771,-2.2137
1.1611,-0.2366,-0.1504,26.9389,-14.5191,-2.8168
1.1658,-0.2329,-0.1663,26.2672,-13.0382,-3.458
1.1638,-0.2334,-0.165,25.7863,-10.9924,-4.3664
1.167,-0.2285,-0.177,25.2977,-9.5802,-5.1908
1.1763,-0.2234,-0.1792,24.3206,-8.0,-6.1298
1.1807,-0.2102,-0.1938,23.3053,-6.6031,-7.0153
1.176,-0.2131,-0.1995,22.4504,-5.313,-8.0382
1.1838,-0.2078,-0.1953,21.2748,-4.4656,-9.5038
1.1792,-0.2068,-0.197,19.9237,-3.2977,-11.084
1.177,-0.2048,-0.1895,18.7405,-2.5344,-12.6412
1.1663,-0.2078,-0.1921,17.5802,-1.9008,-14.1374
1.167,-0.2102,-0.1895,16.1374,-1.4198,-15.8168
1.1592,-0.2183,-0.2031,14.313,-0.542,-17.6183
1.1504,-0.2285,-0.2034,12.7405,0.3817,-19.916
1.1306,-0.229,-0.2019,11.0992,1.5038,-21.5038
1.1162,-0.2249,-0.207,9.6718,2.4809,-23.2672
1.0974,-0.2351,-0.2017,8.2137,3.3588,-25.0
1.0771,-0.2341,-0.1836,7.0229,3.9237,-26.2443
1.062,-0.2327,-0.1809,5.916,3.8855,-27.3664
1.0354,-0.238,-0.167,4.8626,3.687,-28.2519
1.0315,-0.2363,-0.1584,3.9389,3.2214,-28.7557
1.011,-0.2393,-0.1472,3.1603,2.3359,-29.2443
0.9951,-0.2451,-0.1389,2.6107,1.1908,-28.9008
0.9756,-0.2485,-0.1357,2.2519,0.5191,-28.4733
0.9658,-0.2561,-0.1384,1.8779,0.2824,-28.2214
0.9485,-0.2563,-0.1536,1.8702,0.0,-27.5802
0.9387,-0.27,-0.147,1.9389,0.5573,-26.8015
0.9277,-0.2686,-0.147,2.1069,1.5038,-25.7939
0.9199,-0.2705,-0.1467,2.0763,2.0992,-24.855
0.9138,-0.2722,-0.136,2.0611,2.6031,-23.4656
0.9031,-0.2664,-0.1218,2.1985,3.0229,-22.0305
0.9014,-0.2637,-0.1172,2.2214,2.9695,-20.8168
0.8918,-0.2629,-0.0955,2.0611,2.6107,-19.458
0.8909,-0.2622,-0.0974,1.8931,2.0611,-18.0763
0.8811,-0.2659,-0.0911,2.0458,1.6412,-16.9924
0.884,-0.2659,-0.085,1.8779,0.8168,-15.8244
0.8879,-0.2637,-0.0901,1.6641,0.0458,-14.6031
0.8979,-0.2532,-0.0833,1.6718,-0.5191,-13.8168
0.8999,-0.2588,-0.0747,1.7939,-1.4122,-12.8397
0.8921,-0.2627,-0.0793,1.9618,-1.9389,-12.4198
0.9011,-0.2681,-0.0803,1.9084,-2.8855,-11.8092
0.9119,-0.2656,-0.0762,1.8397,-3.4275,-11.3664
0.9104,-0.2605,-0.0745,1.7634,-4.0382,-11.2824
0.9175,-0.2493,-0.0676,1.6565,-4.5496,-10.9618
0.9314,-0.2534,-0.0691,1.6412,-5.374,-11.1145
0.9421,-0.2581,-0.0632,1.3053,-6.0763,-11.084
0.949,-0.25,-0.0593,1.0458,-7.0153,-11.2977
0.9458,-0.2573,-0.0557,0.6031,-8.0992,-11.771
0.9565,-0.2559,-0.0469,0.1374,-8.7557,-11.8244
0.9634,-0.2554,-0.0566,-0.1679,-9.3817,-12.2443
0.9722,-0.2588,-0.0576,-0.7481,-9.1069,-12.6489
0.9736,-0.2532,-0.0681,-1.0458,-8.542,-12.8168
0.978,-0.2532,-0.0642,-1.4504,-7.5191,-12.9771
0.9817,-0.2551,-0.0667,-1.855,-5.9618,-13.0611
0.9871,-0.2612,-0.0691,-2.0229,-4.0229,-13.2672
0.9915,-0.252,-0.061,-2.4427,-2.145,-13.145
0.9949,-0.2607,-0.0564,-2.5038,-0.3511,-13.4427
0.9929,-0.2644,-0.0474,-2.6641,1.2901,-13.2214
0.9993,-0.2622,-0.0403,-2.7252,2.6947,-13.2443
0.9976,-0.2622,-0.0332,-2.9389,4.374,-13.3893
0.9983,-0.2703,-0.0259,-2.7176,5.5267,-13.8244
0.9956,-0.2676,-0.0198,-2.4198,6.7023,-13.8626
0.9907,-0.2761,-0.0178,-1.9008,7.6947,-13.8244
0.9871,-0.2847,-0.0056,-1.4351,8.7252,-13.9466
0.98,-0.282,-0.01,-0.7405,9.771,-14.0611
0.9758,-0.2876,-0.0029,0.0916,10.6183,-14.1298
0.9741,-0.2861,-0.0017,0.9924,11.626,-14.1832
0.9541,-0.2878,-0.0042,1.8321,12.7786,-13.9924
0.9421,-0.291,0.009,2.5573,13.3893,-13.687
0.9319,-0.2888,0.0059,3.9084,13.8702,-13.5878
0.9268,-0.2915,0.012,4.8473,14.2824,-13.1908
0.9177,-0.2844,0.02,5.8931,14.5115,-12.4504
0.8984,-0.2791,0.0059,6.8779,14.3282,-11.855
0.8896,-0.2695,0.0095,7.8244,14.0153,-10.9084
0.8826,-0.2637,0.0073,8.916,13.4885,-9.4122
0.875,-0.2615,0.0125,9.7557,12.7176,-7.9466
0.8765,-0.2539,0.0112,10.3664,11.9313,-6.687
0.8694,-0.2471,0.0039,10.6947,11.1298,-5.1145
0.8687,-0.2458,-0.0037,11.1756,9.9542,-3.6565
0.8765,-0.2312,-0.0059,11.1221,8.771,-2.4504
0.8816,-0.2351,-0.012,11.1756,7.5573,-1.4046
0.8884,-0.2273,-0.0068,11.1374,6.8244,-0.3969
0.8904,-0.2251,-0.0137,10.9847,5.8168,0.0916
0.9019,-0.2261,-0.0305,10.7481,4.8015,0.7328
0.9143,-0.2266,-0.0242,10.3664,3.8626,0.9237
0.9185,-0.2258,-0.0339,10.0916,2.8855,0.6641
0.936,-0.23,-0.02,9.6565,1.8931,0.8244
0.937,-0.2258,-0.0283,8.9695,0.7099,0.8931
0.9521,-0.2241,-0.0278,8.8092,-0.1527,0.4198
0.9534,-0.2209,-0.0339,8.1298,-1.0076,0.1374
0.9531,-0.2214,-0.0322,7.6641,-1.5573,-0.1298
0.9678,-0.2214,-0.0281,7.3969,-2.3893,-0.3206
0.9773,-0.2292,-0.0322,6.7252,-3.1527,-0.8931
0.9846,-0.2258,-0.0435,6.3664,-3.9618,-1.0458
0.988,-0.2302,-0.0422,6.0229,-4.7939,-1.3588
0.9937,-0.2253,-0.0342,5.5267,-5.7176,-1.771
1.001,-0.2302,-0.04,5.0,-6.7405,-2.1679
1.0186,-0.2317,-0.0427,4.6794,-7.1298,-2.1985
1.0244,-0.2314,-0.0498,4.1985,-7.6489,-2.4885
1.0337,-0.2312,-0.0483,3.7481,-7.8244,-2.8244
1.0483,-0.2327,-0.0437,3.313,-7.6412,-3.2061
1.0498,-0.2261,-0.05,2.7252,-7.1679,-3.7863
1.0547,-0.2302,-0.063,2.2519,-6.2672,-3.8321
1.0625,-0.2395,-0.0671,2.0763,-5.1374,-4.7481
1.0647,-0.2368,-0.0596,1.8397,-3.9313,-5.3282
1.0708,-0.2417,-0.05,1.5267,-2.3053,-5.8931
1.071,-0.2397,-0.0566,1.4351,-0.5344,-6.1756
1.0706,-0.2412,-0.0457,1.2977,0.9389,-6.8015
1.0649,-0.2432,-0.0491,0.8931,2.3588,-7.1527
1.061,-0.2407,-0.0361,1.0992,3.3282,-7.6412
1.0398,-0.2373,-0.0269,1.0916,4.2061,-8.0229
1.0417,-0.2332,-0.0234,1.3359,4.8015,-8.5115
1.0281,-0.2388,-0.0242,1.3359,5.0687,-8.4809
1.0203,-0.2305,-0.011,1.5038,5.2214,-8.4733
1.01,-0.2356,-0.0085,1.771,5.2901,-8.9542
1.0032,-0.2349,-0.0078,1.855,5.3893,-8.7099
0.9941,-0.2361,-0.0151,2.0534,5.2595,-8.4733
0.9783,-0.2305,-0.0068,2.3053,5.0992,-8.2672
0.968,-0.2312,-0.0039,2.4504,4.7863,-8.3893
0.9675,-0.2305,-0.0083,2.7939,4.3969,-7.6794
0.9543,-0.2156,-0.0015,3.0534,3.9618,-7.084
0.9487,-0.2207,-0.0049,3.2061,3.2214,-6.7481
0.9419,-0.2168,-0.0012,3.2519,2.7939,-6.229
0.9436,-0.2195,-0.0044,3.7328,2.2519,-5.3817
0.9331,-0.2144,-0.002,3.6641,1.3435,-4.8626
0.9321,-0.2107,-0.0022,3.8931,0.4427,-4.0458
0.9272,-0.2083,-0.0037,3.687,-0.8855,-3.4962
0.9297,-0.2061,0.0015,3.7786,-1.9542,-2.7099
0.9329,-0.2085,0.0027,3.4198,-3.229,-2.1145
0.936,-0.2114,0.0083,3.2061,-4.6489,-1.4275
