ax,ay,az,gx,gy,gz
1.4587,-0.0471,-0.1411,0.6794,-18.8626,-5.6031
1.4976,-0.0537,-0.1479,0.374,-21.1908,-7.9847
1.5525,-0.0583,-0.1448,-0.6412,-24.1679,-10.916
1.6045,-0.0605,-0.1406,-1.6031,-28.2824,-14.8092
1.6516,-0.0569,-0.1384,-2.8244,-32.1069,-19.2977
1.7056,-0.0674,-0.1379,-4.6031,-35.771,-24.2366
1.7585,-0.0837,-0.1487,-6.6031,-39.4427,-30.1069
1.8162,-0.1055,-0.1497,-8.3817,-44.4427,-37.374
1.843,-0.1162,-0.1404,-10.6641,-49.7939,-44.0153
1.8926,-0.1287,-0.1177,-13.1603,-56.0458,-52.1527
1.9512,-0.1438,-0.1067,-15.9924,-61.9237,-60.6718
1.9995,-0.1592,-0.084,-18.7023,-68.7786,-69.7328
1.9999,-0.1663,-0.0703,-21.4351,-76.3893,-79.374
1.9999,-0.1785,-0.041,-24.4504,-84.2977,-89.2824
1.9999,-0.1995,-0.0127,-27.5802,-93.6794,-99.8626
1.9999,-0.2146,0.0107,-30.8244,-100.4275,-111.0534
1.9999,-0.238,0.0476,-34.6031,-111.6336,-124.4122
1.9999,-0.2578,0.092,-37.5649,-121.5267,-136.3588
1.9999,-0.262,0.1084,-40.4962,-131.458,-147.7786
1.9999,-0.2781,0.1433,-42.8931,-141.4046,-159.8244
1.9999,-0.2778,0.1458,-45.0763,-150.626,-171.6794
1.9999,-0.2981,0.1624,-46.2519,-159.4733,-183.1603
1.9999,-0.3281,0.158,-47.4504,-166.3969,-194.9237
1.9999,-0.3423,0.1541,-47.7252,-171.7634,-206.3893
1.9999,-0.356,0.1533,-47.8015,-175.4733,-217.6794
1.9999,-0.3809,0.1477,-47.5725,-177.9313,-228.7557
1.9999,-0.3948,0.1418,-46.8092,-179.916,-239.7252
1.9999,-0.4094,0.1196,-45.8473,-180.458,-250.1374
1.9999,-0.4275,0.1064,-44.5725,-179.8473,-250.1374
1.9999,-0.4343,0.0972,-43.0992,-178.7023,-250.1374
1.9999,-0.4546,0.0881,-41.2137,-176.8702,-250.1374
1.9999,-0.4607,0.0857,-39.2824,-174.9618,-250.1374
1.9999,-0.4685,0.0505,-37.3588,-172.145,-250.1374
1.9999,-0.479,0.0117,-35.3511,-167.9618,-250.1374
1.9999,-0.4895,-0.0442,-33.7252,-163.2061,-250.1374
1.9999,-0.4983,-0.0837,-32.3511,-156.8702,-250.1374
1.9999,-0.5254,-0.1387,-31.4962,-148.3435,-250.1374
1.9999,-0.5356,-0.1611,-31.2519,-138.9008,-250.1374
1.9999,-0.5686,-0.2046,-31.916,-126.6489,-250.1374
1.9999,-0.5933,-0.2231,-33.0229,-114.542,-250.1374
1.9999,-0.6226,-0.23,-34.9237,-101.7557,-250.1374
1.9999,-0.6404,-0.2285,-36.8397,-90.3588,-250.1374
1.9999,-0.6516,-0.2261,-38.8779,-81.9084,-250.1374
1.9999,-0.6616,-0.228,-40.7786,-73.4504,-250.1374
1.9999,-0.6794,-0.2175,-43.0458,-66.6565,-250.1374
1.9999,-0.687,-0.198,-45.3206,-60.916,-250.1374
1.9999,-0.6987,-0.1912,-48.2595,-55.8244,-250.1374
1.9999,-0.7141,-0.1624,-51.6412,-50.7863,-250.1374
1.9999,-0.7454,-0.1304,-55.2901,-45.5725,-250.1374
1.9999,-0.7688,-0.1072,-58.9008,-40.3664,-250.1374
1.9999,-0.7908,-0.075,-62.4656,-34.626,-250.1374
1.9999,-0.8081,-0.0273,-65.5038,-28.4809,-250.1374
1.9999,-0.8171,0.0054,-67.6565,-22.9771,-250.1374
1.9999,-0.8359,0.054,-69.1527,-17.7481,-250.1374
1.9999,-0.8442,0.0642,-69.4427,-12.6107,-250.1374
1.9999,-0.8699,0.1123,-68.8168,-8.3664,-250.1374
1.9999,-0.8943,0.1455,-67.6794,-3.6107,-250.1374
1.9999,-0.9194,0.1509,-65.0763,2.1069,-250.1374
1.9999,-0.9497,0.1362,-61.4504,8.5725,-250.1374
1.9999,-0.9775,0.1143,-57.0,17.2595,-250.1374
1.9999,-0.9841,0.0781,-51.7557,28.2748,-250.1374
1.9999,-0.9883,0.05,-45.9695,41.1756,-250.1374
1.9999,-0.9878,0.0347,-39.9237,53.9008,-250.1374
1.9999,-0.9751,-0.0029,-32.3817,68.8397,-250.1374
1.9999,-0.9612,-0.052,-25.0534,83.458,-250.1374
1.9999,-0.9456,-0.1021,-17.1374,98.7405,-250.1374
1.908,-0.9165,-0.1396,-9.3206,113.1527,-250.1374
1.803,-0.8806,-0.1699,-1.3053,126.6718,-250.1374
1.7041,-0.8396,-0.1997,6.5038,138.9237,-250.1374
1.5996,-0.8118,-0.2197,13.5344,149.6336,-250.1374
1.4839,-0.7878,-0.2339,20.5573,157.8779,-250.1374
1.3655,-0.7439,-0.2612,27.7099,167.0763,-250.1374
1.2388,-0.698,-0.271,33.0687,172.9389,-250.1374
1.0999,-0.6426,-0.2773,37.916,177.0687,-250.1374
1.033,-0.6189,-0.2778,41.9924,180.2214,-250.1374
0.9026,-0.5562,-0.2671,44.9466,181.7786,-250.1374
0.762,-0.4978,-0.2319,47.5344,181.687,-250.1374
0.6128,-0.4509,-0.2046,49.0076,179.626,-250.1374
0.4692,-0.3918,-0.1941,50.1908,176.2595,-250.1374
0.3174,-0.3462,-0.1628,50.8931,171.1756,-250.1374
0.1711,-0.2959,-0.1643,51.7557,165.0229,-250.1374
0.0337,-0.2402,-0.1621,52.2824,159.6488,-250.1374
-0.0344,-0.2205,-0.1724,52.771,154.8931,-250.1374
-0.166,-0.1848,-0.1707,53.9466,149.2137,-250.1374
-0.3037,-0.1377,-0.1663,54.9389,143.7252,-250.1374
-0.4097,-0.0876,-0.1499,55.9847,138.1069,-250.1374
-0.5215,-0.0579,-0.1489,57.4046,132.2519,-250.1374
-0.6172,-0.0159,-0.124,58.9313,125.5649,-250.1374
-0.7009,0.0073,-0.1289,60.687,118.2519,-250.1374
-0.7744,0.0139,-0.1147,62.8092,109.8168,-250.1374
-0.8477,0.0249,-0.1238,65.0611,100.7328,-250.1374
-0.8811,0.0249,-0.1287,67.2443,91.0611,-250.1374
-0.9453,0.0522,-0.1411,69.7099,81.2824,-250.1374
-0.9851,0.1455,-0.1514,71.3969,71.771,-250.1374
-1.0,0.1633,-0.1865,72.4504,63.2595,-250.1374
-1.0674,0.1528,-0.2471,73.9313,55.7328,-250.1374
-1.0864,0.1521,-0.2507,75.2137,48.6183,-250.1374
-1.0957,0.1553,-0.2634,76.8855,39.1679,-250.1374
-1.0955,0.1763,-0.2339,79.0458,28.8626,-250.1374
-1.0881,0.1777,-0.2166,80.5191,16.0153,-250.1374
-1.1001,0.1931,-0.1907,81.8779,1.9389,-250.1374
-1.093,0.2119,-0.1775,83.1298,-13.5725,-250.1374
-1.0891,0.2344,-0.1729,84.2901,-29.6794,-250.1374
-1.0735,0.26,-0.1704,85.6794,-46.4046,-250.1374
-1.0608,0.2737,-0.1848,86.3893,-62.1756,-250.1374
-1.0349,0.2983,-0.1934,86.6183,-76.6947,-250.1374
-1.0054,0.3081,-0.2095,86.8779,-88.8855,-250.1374
-0.9736,0.312,-0.2317,86.7099,-98.4198,-250.1374
-0.9529,0.3196,-0.2483,85.6641,-104.0382,-250.1374
-0.9189,0.3228,-0.2788,84.0687,-107.6947,-250.1374
-0.8882,0.3318,-0.2871,82.084,-108.3511,-250.1374
-0.8784,0.3391,-0.2852,79.3206,-108.0763,-250.1374
-0.854,0.3411,-0.2961,76.3206,-106.7939,-250.1374
-0.8264,0.3525,-0.3364,73.1069,-101.6489,-250.1374
-0.7979,0.3657,-0.3379,69.6947,-95.5038,-250.1374
-0.7698,0.3608,-0.3586,66.7634,-89.1527,-250.1374
-0.7488,0.3635,-0.3765,63.7634,-78.8473,-250.1374
-0.7302,0.3643,-0.3975,61.3435,-67.6718,-250.1374
-0.7183,0.355,-0.4084,59.0229,-56.1145,-250.1374
-0.7014,0.3362,-0.4243,57.0229,-44.0153,-241.2366
-0.7002,0.3198,-0.4238,55.4427,-30.9313,-231.7557
-0.6946,0.3027,-0.4321,54.4122,-17.8931,-221.3435
-0.689,0.2793,-0.4387,53.6641,-5.916,-212.4962
-0.6951,0.2566,-0.4243,53.4275,4.6336,-204.1756
-0.7014,0.2451,-0.427,53.2672,13.0611,-196.6107
-0.7051,0.2192,-0.3987,53.3588,22.1069,-187.3512
-0.7053,0.209,-0.3848,53.4504,27.3206,-181.0992
-0.7122,0.1895,-0.3669,53.7252,30.0,-174.9618
-0.7075,0.1816,-0.3579,54.084,30.5573,-169.8855
-0.7092,0.1675,-0.3616,54.3817,29.3282,-165.4275
-0.7056,0.147,-0.3511,54.6489,26.8092,-161.6031
-0.7114,0.127,-0.3623,55.0382,23.4122,-158.1527
-0.6982,0.1135,-0.3726,54.9008,19.6794,-155.4962
-0.7,0.1101,-0.364,55.0687,15.5496,-153.5343
-0.6895,0.1028,-0.3799,55.084,11.2443,-151.916
-0.6816,0.104,-0.3865,54.8855,6.7863,-150.7557
-0.6794,0.1001,-0.3916,54.7099,2.3206,-149.9237
-0.6682,0.0962,-0.4048,54.0992,-2.2595,-149.5496
-0.6582,0.0891,-0.4092,53.6718,-6.771,-148.9542
-0.658,0.0864,-0.4082,52.8473,-10.771,-149.1069
-0.6514,0.0884,-0.4172,51.8015,-14.1298,-148.7863
-0.6536,0.092,-0.4202,51.0916,-17.2672,-148.6183
-0.6624,0.0845,-0.4226,50.3817,-19.2519,-148.6412
-0.667,0.1033,-0.4219,49.6412,-20.9084,-148.4275
-0.6792,0.1035,-0.4238,49.1908,-21.6947,-148.0458
-0.6895,0.1177,-0.4224,48.8626,-21.8473,-147.0382
-0.7063,0.1245,-0.4224,48.4198,-21.6107,-146.2595
-0.7271,0.1384,-0.4038,48.2748,-20.7786,-144.6718
-0.7485,0.1516,-0.4043,48.542,-19.8244,-143.1527
-0.7776,0.1514,-0.4062,48.5878,-18.7863,-141.2672
-0.7993,0.1619,-0.397,49.4427,-17.458,-138.8626
-0.8291,0.1602,-0.3992,49.6641,-16.3511,-136.0229
-0.8508,0.165,-0.4165,50.3282,-14.8855,-133.0
-0.8643,0.1736,-0.4275,50.7939,-12.855,-129.4962
-0.8894,0.1724,-0.4302,51.4427,-10.687,-125.5343
-0.9158,0.1802,-0.4529,52.0534,-8.5038,-120.9924
-0.9436,0.1821,-0.4868,52.7099,-5.9847,-115.8092
-0.9641,0.1965,-0.5022,53.229,-2.9771,-110.3893
-0.9968,0.2134,-0.5273,53.2595,0.3817,-104.3511
-1.0171,0.2268,-0.54,53.2977,3.6412,-97.7328
-1.0376,0.251,-0.5623,53.3511,7.0992,-91.8168
-1.0522,0.2578,-0.5833,53.2366,9.8702,-83.5725
-1.0681,0.2649,-0.5833,52.916,12.6718,-75.3969
-1.0884,0.2886,-0.5959,52.3664,14.8855,-67.3588
-1.0979,0.2922,-0.603,51.9313,16.5267,-58.9389
-1.1077,0.3057,-0.6338,50.9695,17.8244,-50.6489
-1.1135,0.3147,-0.6604,49.9313,19.0076,-42.313
-1.1245,0.3247,-0.6643,48.9008,19.8168,-33.9313
-1.1257,0.333,-0.6809,47.3359,20.3893,-25.8092
-1.1245,0.3396,-0.6997,45.5573,20.771,-18.2901
-1.1272,0.3459,-0.7129,43.3359,21.0076,-10.1985
-1.1252,0.3633,-0.7217,40.6031,20.8855,-2.8702
-1.1155,0.366,-0.7288,37.6794,20.4427,4.1679
-1.1208,0.3799,-0.7297,34.3359,20.1221,11.0687
-1.1201,0.386,-0.7307,30.374,19.6107,17.542
-1.1067,0.3914,-0.7397,26.5114,18.8244,23.771
-1.1072,0.3955,-0.731,22.2137,18.0,29.687
-1.1008,0.3965,-0.7268,17.5267,17.1221,35.7405
-1.0938,0.3943,-0.7288,12.7023,15.9924,41.542
-1.0815,0.3943,-0.7251,6.7405,14.9008,47.8397
-1.0706,0.3918,-0.7183,1.5649,13.7557,53.7099
-1.0564,0.3867,-0.7146,-3.1298,12.6107,58.7481
-1.0439,0.3821,-0.7151,-8.0916,11.3893,64.4046
-1.0347,0.3796,-0.7085,-12.687,10.5115,69.7176
-1.0229,0.3638,-0.6951,-17.0611,9.8321,74.8779
-1.0127,0.3672,-0.6819,-21.2901,9.4275,80.2824
-0.9995,0.3596,-0.6802,-25.1985,9.0,85.3053
-0.978,0.3528,-0.6555,-28.6565,9.0611,90.5573
-0.9717,0.3555,-0.6477,-32.1908,9.2977,95.687
-0.9592,0.3408,-0.635,-35.0382,9.5344,101.1298
-0.9539,0.3347,-0.6318,-37.6107,10.2061,106.0076
-0.9365,0.3303,-0.623,-40.5267,11.3435,111.3969
-0.9268,0.3132,-0.6074,-42.5725,12.4656,116.2137
-0.9246,0.3176,-0.5906,-44.4275,13.8168,121.1679
-0.9167,0.3059,-0.5662,-46.2901,15.1756,125.9542
-0.905,0.3015,-0.5576,-47.5344,16.9542,130.6488
-0.9077,0.2979,-0.5608,-48.8855,18.3664,135.4122
-0.9133,0.3079,-0.53,-49.8397,19.6565,140.2519
-0.915,0.301,-0.5176,-50.6107,21.0687,145.1679
-0.9158,0.3003,-0.5061,-50.9542,21.8855,149.7939
-0.9136,0.2988,-0.4988,-51.6718,23.0229,154.8626
-0.9285,0.2954,-0.4834,-52.0076,23.5802,159.4809
-0.9395,0.2898,-0.4692,-52.1145,24.084,164.2977
-0.9421,0.2949,-0.4565,-52.3359,24.4809,168.9008
-0.9448,0.2947,-0.4546,-52.2137,24.8092,173.9008
-0.9624,0.3027,-0.4475,-51.8397,24.7786,178.9618
-0.9668,0.3005,-0.4456,-52.0229,25.0229,184.0992
-0.9692,0.3069,-0.4465,-51.5649,25.2061,189.1069
-0.9834,0.304,-0.4419,-51.313,25.6794,194.8473
-0.9878,0.3137,-0.446,-51.4427,26.2061,200.4122
-0.991,0.3213,-0.4514,-51.0687,27.0,206.374
-1.0029,0.3335,-0.4512,-51.3588,28.2595,212.5114
-1.0037,0.3345,-0.4502,-51.7557,29.7786,219.1221
-1.0125,0.3396,-0.4509,-52.2214,31.9771,225.7939
-1.0164,0.3394,-0.4463,-52.916,34.4046,232.7863
-1.0212,0.3416,-0.4517,-53.687,37.2137,240.1374
-1.0295,0.3472,-0.4595,-54.5115,40.3053,247.9008
-1.0303,0.3445,-0.4617,-55.8015,43.8473,250.1298
-1.0266,0.3437,-0.4653,-56.9237,47.6489,250.1298
-1.0232,0.3423,-0.4834,-57.7176,51.6489,250.1298
-1.0286,0.3391,-0.4819,-58.5573,55.7634,250.1298
-1.0249,0.3301,-0.4854,-59.6107,59.7939,250.1298
-1.0234,0.3279,-0.4768,-60.6489,63.5649,250.1298
-1.0269,0.3186,-0.4775,-61.3664,66.8473,250.1298
-1.0225,0.3149,-0.4778,-62.3969,70.0229,250.1298
-1.0027,0.3057,-0.4744,-63.3664,71.5725,250.1298
-0.9915,0.2954,-0.459,-64.2824,72.313,250.1298
-0.9678,0.2795,-0.448,-65.3893,70.9008,250.1298
-0.9351,0.2427,-0.4263,-66.145,67.6412,250.1298
-0.8987,0.22,-0.4292,-67.0382,61.9618,250.1298
-0.8699,0.187,-0.4153,-68.1832,54.229,250.1298
-0.8164,0.1426,-0.4082,-69.0,44.5725,250.1298
-0.7852,0.1301,-0.3999,-69.6489,32.9924,250.1298
-0.7144,0.0984,-0.3669,-70.374,15.5954,250.1298
-0.6565,0.0854,-0.3362,-71.2214,-0.1985,250.1298
-0.5789,0.0723,-0.3176,-71.4885,-17.771,250.1298
-0.5527,0.0659,-0.3022,-71.8015,-36.1832,250.1298
-0.4639,0.0537,-0.2688,-71.7557,-56.0534,250.1298
-0.3909,0.04,-0.2737,-71.5649,-76.9008,250.1298
-0.3105,0.0308,-0.2666,-71.0076,-98.2366,250.1298
-0.2327,0.0239,-0.2739,-70.2519,-116.0763,250.1298
-0.1489,0.0076,-0.283,-69.4504,-134.2977,250.1298
-0.0232,0.0051,-0.3374,-68.0534,-148.7557,250.1298
0.0574,0.0042,-0.3748,-67.0992,-157.7405,250.1298
0.0864,-0.0046,-0.3706,-66.2137,-164.0305,250.1298
0.1709,0.0132,-0.4146,-65.7405,-165.8244,250.1298
0.2661,0.0408,-0.4634,-65.1756,-163.2824,250.1298
0.3296,0.0632,-0.4536,-64.9389,-160.5114,250.1298
0.4053,0.0854,-0.4675,-64.9771,-154.9924,250.1298
0.4851,0.1057,-0.4912,-65.5802,-145.7863,250.1298
0.5188,0.1111,-0.48,-66.1832,-135.1298,250.1298
0.5593,0.1128,-0.4702,-67.0382,-123.7176,250.1298
0.5754,0.1184,-0.4597,-68.1221,-112.3435,250.1298
0.6003,0.1272,-0.4463,-69.7328,-98.771,250.1298
0.6135,0.1282,-0.4211,-70.9389,-86.9771,250.1298
0.6221,0.1453,-0.3896,-71.9847,-74.8244,250.1298
0.6138,0.1506,-0.3608,-72.8702,-62.5038,250.1298
0.616,0.1621,-0.3381,-73.9695,-49.9847,250.1298
0.5925,0.1692,-0.3025,-74.9618,-37.6641,250.1298
0.573,0.1636,-0.2866,-75.6107,-25.084,250.1298
0.554,0.1655,-0.2529,-75.916,-12.4962,250.1298
0.5364,0.1633,-0.2407,-76.1679,0.3511,250.1298
0.5139,0.1675,-0.2114,-76.3588,13.626,250.1298
0.4795,0.1641,-0.1831,-76.2595,26.8931,250.1298
0.4578,0.1492,-0.1582,-76.1679,41.0229,250.1298
0.4258,0.1179,-0.1294,-75.9924,54.5344,250.1298
0.4043,0.1001,-0.1208,-75.7252,67.855,250.1298
0.3745,0.071,-0.0776,-75.2214,80.916,250.1298
0.3552,0.0312,-0.0593,-74.9008,93.6947,250.1298
0.3459,0.0134,-0.0381,-74.7176,104.5038,250.1298
0.3298,-0.0281,-0.0178,-74.0,116.374,250.1298
0.3171,-0.0828,0.0203,-73.4809,126.0763,250.1298
0.3066,-0.1433,0.0447,-72.5343,133.916,250.1298
0.303,-0.2,0.0686,-72.1298,139.7634,250.1298
0.3123,-0.2698,0.1021,-71.3664,143.2214,250.1298
0.3281,-0.3403,0.1331,-70.374,143.6183,250.1298
0.3496,-0.4072,0.1648,-69.3053,141.1679,250.1298
0.3755,-0.4829,0.2083,-67.855,134.3282,250.1298
0.3918,-0.5244,0.2466,-66.8931,122.7481,250.1298
0.4553,-0.5996,0.2881,-65.2137,106.7481,250.1298
0.521,-0.6838,0.3511,-63.6336,85.5649,250.1298
0.6077,-0.7576,0.3984,-61.626,58.0763,250.1298
0.7041,-0.8159,0.4419,-58.4885,25.7023,250.1298
0.8315,-0.8694,0.4617,-54.0229,-11.0229,250.1298
0.98,-0.906,0.4614,-48.6718,-49.6412,250.1298
1.123,-0.9336,0.4363,-42.2595,-87.7405,250.1298
1.1987,-0.9426,0.4236,-35.5649,-125.0458,250.1298
1.4531,-0.9509,0.3508,-26.7023,-167.8244,250.1298
1.6187,-0.9578,0.2729,-18.8168,-201.6718,250.1298
1.7993,-0.9607,0.1797,-10.9847,-233.2366,250.1298
1.9719,-0.9546,0.0779,-4.2214,-250.1374,250.1298
1.9999,-0.9297,-0.0293,1.4962,-250.1374,250.1298
1.9999,-0.8918,-0.1204,6.0687,-250.1374,250.1298
1.9999,-0.8708,-0.1787,9.4275,-250.1374,250.1298
1.9999,-0.8245,-0.2871,11.626,-250.1374,250.1298
1.9999,-0.7649,-0.3577,12.3511,-250.1374,250.1298
1.9999,-0.6997,-0.4023,11.9771,-250.1374,250.1298
1.9999,-0.6082,-0.4482,10.4275,-250.1374,250.1298
1.9999,-0.5288,-0.4763,8.0,-250.1374,250.1298
1.9999,-0.4517,-0.4929,4.626,-241.8015,250.1298
1.9999,-0.3823,-0.4983,0.7863,-222.8321,250.1298
1.9999,-0.354,-0.4968,-2.9771,-202.1832,250.1298
1.9999,-0.2949,-0.4973,-7.1756,-178.1832,250.1298
1.9999,-0.2664,-0.4785,-10.5191,-153.8702,250.1298
1.9999,-0.2351,-0.4636,-13.4351,-127.4351,250.1298
1.9999,-0.2227,-0.4265,-15.4809,-99.9847,250.1298
1.9999,-0.2019,-0.3059,-17.2977,-77.9466,250.1298
1.9999,-0.2119,-0.3054,-17.9924,-56.4351,250.1298
1.9999,-0.1929,-0.3481,-17.3817,-28.2977,250.1298
1.9999,-0.1897,-0.3279,-15.8397,3.1679,250.1298
1.9999,-0.1907,-0.2988,-13.9924,34.313,250.1069
1.9999,-0.2102,-0.1982,-11.6412,61.626,248.2977
1.9999,-0.2314,-0.1306,-8.687,88.084,246.8397
1.9999,-0.2444,-0.0857,-5.4504,113.5343,245.9847
1.9999,-0.2588,-0.0115,-1.1527,136.5573,245.6947
1.9999,-0.2761,0.0635,3.5344,155.4122,245.7481
1.9999,-0.283,0.1311,8.687,171.3817,246.1908
1.9999,-0.2976,0.2024,14.0992,183.2824,246.4657
1.9999,-0.2959,0.2231,20.0611,191.4046,247.4504
1.9999,-0.301,0.2893,27.2214,196.5649,248.4122
1.9622,-0.3049,0.3457,34.1908,196.7481,249.5725
1.9353,-0.3132,0.3704,41.8244,193.2672,250.1298
1.9431,-0.3274,0.385,50.1374,186.7405,250.1298
1.9568,-0.3264,0.3667,58.542,176.771,250.1298
1.9971,-0.3455,0.3394,67.0153,164.3664,250.1298
1.9999,-0.3579,0.2942,75.4809,150.5496,248.771
1.9999,-0.3616,0.2705,82.3053,136.7634,244.2366
1.9999,-0.3606,0.2097,89.084,121.0229,237.0
1.9999,-0.3435,0.1482,94.3588,106.2824,227.6107
1.9999,-0.3252,0.0984,98.0305,91.0992,216.2214
1.9999,-0.3013,0.0386,100.3053,76.3053,202.7557
1.9999,-0.2698,-0.0393,101.1298,62.7176,187.6488
1.9999,-0.2456,-0.113,100.5496,50.2061,170.4733
1.9999,-0.2175,-0.1897,98.6794,37.9618,152.4275
1.9999,-0.1794,-0.2546,95.084,26.4275,134.1756
1.9999,-0.1624,-0.2854,90.2977,15.4733,116.1145
1.9999,-0.1147,-0.3364,83.8931,5.229,97.6489
1.9999,-0.0693,-0.3887,76.7939,-4.2214,80.6641
1.9999,-0.0232,-0.4348,68.626,-13.1221,64.771
1.9999,0.0178,-0.4756,59.7405,-21.0076,49.9466
1.9999,0.064,-0.5071,50.0763,-27.2443,37.0382
1.9999,0.0981,-0.5566,37.8244,-33.7557,23.3053
1.9999,0.1299,-0.5806,27.9618,-36.8321,14.0458
1.9999,0.1519,-0.6067,18.3511,-38.4733,7.1069
1.9999,0.1736,-0.6243,8.9389,-38.8168,1.8092
1.9999,0.1868,-0.6323,-0.6183,-37.4962,-2.3282
1.9604,0.1909,-0.6221,-8.9008,-35.1298,-4.4198
1.9265,0.2002,-0.6121,-16.0153,-32.5725,-5.1221
1.8718,0.2,-0.5901,-23.5267,-28.3053,-5.0229
1.8242,0.1802,-0.5798,-29.7252,-23.5802,-3.4504
1.7725,0.1772,-0.5535,-35.3053,-17.6489,-1.2748
1.7402,0.1689,-0.5059,-40.0229,-11.6641,1.7176
1.7024,0.168,-0.4775,-43.8626,-4.9466,5.3588
1.6848,0.1489,-0.4314,-47.1374,2.1756,9.4656
1.6536,0.1406,-0.3979,-49.7786,10.1298,13.6565
1.6382,0.1211,-0.3594,-51.6107,18.8397,18.1298
1.6294,0.1165,-0.3269,-52.4122,27.9542,22.2824
1.6172,0.0999,-0.2727,-52.8702,36.9618,25.8931
1.6003,0.0842,-0.2227,-52.5038,45.5496,29.084
1.5874,0.0513,-0.1692,-51.7252,54.3817,32.1527
1.5701,0.0393,-0.1228,-50.0916,62.2443,34.4427
1.5557,0.009,-0.0693,-47.8702,68.9542,35.9771
1.5425,-0.0137,-0.0181,-45.5802,74.8015,37.2595
1.5264,-0.0264,0.0305,-42.626,79.4275,37.6107
1.4978,-0.0425,0.0769,-39.1908,82.9618,37.3511
1.489,-0.0566,0.0986,-35.8855,85.4046,36.8015
1.4626,-0.0679,0.1543,-31.7786,86.4427,36.1756
1.4463,-0.0696,0.1899,-27.7176,86.458,34.5649
1.4197,-0.0894,0.2219,-23.4962,84.6794,32.6947
1.3914,-0.0916,0.2544,-19.0382,82.0687,31.1374
1.3687,-0.1008,0.2654,-14.2748,78.6718,28.7328
1.3491,-0.1084,0.2913,-9.6031,74.3511,26.229
1.3186,-0.106,0.2979,-4.9313,69.4198,23.6718
1.3108,-0.1113,0.2976,-0.4656,64.3969,21.4656
1.2876,-0.1174,0.2957,4.313,59.3435,19.2672
1.2651,-0.1179,0.2825,8.687,54.2901,16.9466
1.2478,-0.1172,0.2766,13.5344,49.1298,15.4275
1.2332,-0.1138,0.2476,18.0763,43.6718,13.855
1.2197,-0.1074,0.2358,22.3664,38.229,12.8092
1.2222,-0.0972,0.229,26.8015,32.8779,12.0076
1.2075,-0.0791,0.1965,30.8779,27.3282,11.4733
1.2136,-0.0703,0.1814,34.7634,22.2748,10.9695
1.2119,-0.0623,0.1555,38.3969,17.9847,10.5344
1.2119,-0.0574,0.125,41.7252,13.9924,9.7405
1.22,-0.041,0.0869,44.1527,10.8931,9.0611
1.2358,-0.0386,0.043,46.1756,8.2519,8.4809
1.2483,-0.0232,0.0068,47.5954,6.3511,7.6794
1.2576,-0.0193,-0.0435,48.8015,5.2061,6.8626
1.2729,0.002,-0.0745,49.4351,4.6718,6.0153
1.2737,0.0112,-0.0879,49.7176,4.7099,4.8397
1.2839,0.0222,-0.127,49.4427,5.4351,3.7328
1.3049,0.0469,-0.1533,48.8779,6.2748,2.3053
1.3052,0.0615,-0.1755,47.8015,7.374,0.7786
1.3115,0.073,-0.1941,46.542,8.7863,-0.9695
1.322,0.0825,-0.2175,44.8244,10.3588,-2.9695
1.3091,0.0874,-0.2407,42.9084,12.0534,-4.6412
1.3171,0.0994,-0.2505,40.0611,14.1069,-7.5725
1.3127,0.0991,-0.2603,37.6794,15.9618,-9.7176
1.2988,0.1064,-0.2725,35.1298,17.687,-12.0229
1.2874,0.115,-0.2659,32.3359,19.4046,-14.1679
1.2742,0.1165,-0.2805,29.7252,20.855,-16.6641
1.2573,0.1135,-0.2761,26.9847,22.2977,-18.3817
1.2371,0.1243,-0.2725,24.5191,23.458,-20.4504
1.2097,0.1272,-0.2686,21.7481,24.3817,-22.6565
1.1807,0.1206,-0.2612,19.2672,25.4351,-24.1908
1.1465,0.1179,-0.2554,16.9847,25.7786,-25.5114
1.113,0.1194,-0.251,14.771,25.6031,-26.5725
1.0859,0.1169,-0.2427,12.9618,25.2519,-27.5191
1.0569,0.1067,-0.2175,11.1603,24.3664,-27.542
1.0461,0.1128,-0.2112,9.7099,23.2061,-27.4504
1.0073,0.1133,-0.2009,8.0916,21.3206,-26.855
0.9846,0.1116,-0.187,7.0229,19.229,-26.0763
0.959,0.104,-0.1838,5.9008,16.8397,-25.0458
0.9431,0.0972,-0.1577,4.9466,14.1908,-23.7557
0.9246,0.0979,-0.156,4.0611,11.4504,-22.4198
0.905,0.084,-0.1497,3.3817,8.6412,-20.7099
0.896,0.0808,-0.1384,2.7252,5.5191,-19.2748
0.8879,0.0786,-0.1323,2.0763,2.8015,-17.3359
0.8845,0.0723,-0.1248,1.542,-0.3817,-15.5496
0.8794,0.0608,-0.1055,1.0763,-3.3206,-13.7252
0.884,0.0647,-0.104,0.8931,-6.1298,-12.0534
0.8799,0.052,-0.0999,0.9542,-8.5649,-10.5496
0.8826,0.0479,-0.1025,0.6031,-10.6031,-8.8931
0.8813,0.0522,-0.1016,1.0076,-12.626,-7.5496
0.897,0.0391,-0.0898,1.4427,-14.6718,-6.2977
0.8943,0.0361,-0.0889,1.2748,-16.4733,-5.0229
0.9011,0.0337,-0.0903,1.9084,-18.0076,-3.9084
0.9136,0.0298,-0.0879,2.626,-19.5191,-2.9313
0.9233,0.0278,-0.0815,3.145,-20.8397,-1.4809
0.9282,0.0249,-0.0879,3.8855,-21.3282,-0.5954
0.9436,0.0222,-0.092,4.5038,-22.1985,0.0534
0.948,0.0256,-0.0879,5.1069,-22.2901,1.0763
0.9521,0.0149,-0.0952,5.8473,-22.7099,1.6641
0.9631,0.0125,-0.0979,6.5573,-22.9389,2.6183
0.9744,0.0125,-0.0979,7.2443,-22.7023,3.2977
0.9824,0.0151,-0.1167,8.0763,-22.4351,3.8015
0.991,0.0203,-0.0977,8.8015,-21.9389,4.3893
1.0051,0.0161,-0.1211,9.4809,-21.4427,5.0
1.0222,0.0222,-0.1218,9.9084,-20.687,5.6641
1.0374,0.021,-0.1248,10.4885,-19.6947,6.0763
1.0532,0.0264,-0.1287,11.0458,-18.0763,6.4427
1.0579,0.0298,-0.146,11.145,-16.0458,6.7634
1.0669,0.0291,-0.1421,11.4962,-13.9466,6.7023
1.0872,0.0327,-0.1455,11.4198,-11.2672,6.9771
1.0935,0.0378,-0.1538,11.1679,-8.6489,7.0305
1.106,0.0352,-0.1584,11.084,-5.5344,6.542
1.116,0.0325,-0.1631,10.7939,-2.4198,6.3664
1.124,0.0398,-0.1724,10.3588,0.916,5.9924
1.136,0.0376,-0.1716,10.229,4.2672,5.5573
1.1338,0.0403,-0.1619,10.0687,7.7252,4.7557
1.1492,0.0413,-0.158,9.5802,11.3893,3.9313
1.1509,0.0449,-0.1577,9.1069,14.5496,2.9008
1.1543,0.041,-0.1577,8.9924,17.1603,1.9924
1.157,0.0366,-0.1492,8.855,19.5573,1.1756
1.1536,0.0381,-0.1443,8.4733,21.5191,0.0
1.1577,0.03,-0.1458,8.2672,23.5802,-1.1908
1.1565,0.0305,-0.1494,8.084,25.3893,-2.2748
1.1455,0.0264,-0.1396,7.8244,27.4427,-3.2595
1.1438,0.0208,-0.146,7.6641,28.9924,-4.5649
1.1384,0.0183,-0.1418,7.4733,30.626,-5.4427
1.1282,0.0229,-0.1396,7.1145,31.5114,-6.3588
1.1106,0.0193,-0.1387,6.9313,32.2672,-7.6947
1.1013,0.0178,-0.1252,6.9847,32.4275,-8.5267
1.0989,0.0085,-0.1255,6.9008,32.2214,-9.3359
1.075,0.0098,-0.1116,6.5344,31.5802,-10.3435
1.0691,0.0037,-0.1157,6.5115,30.9237,-11.5038
1.0503,0.0046,-0.1042,6.145,29.3359,-12.3588
1.0352,-0.0007,-0.0942,5.8626,27.2748,-13.4656
1.0276,0.0032,-0.0793,5.6031,24.6718,-14.3511
0.9995,0.0002,-0.0664,5.2595,21.9466,-15.2672
0.9937,0.0005,-0.0803,5.1145,19.0229,-16.2366
0.988,-0.0027,-0.0771,4.7405,15.5878,-17.1985
0.9729,0.002,-0.0713,4.3893,11.9542,-17.6718
0.9558,0.0034,-0.0657,4.3435,8.542,-18.2977
0.9434,0.0049,-0.0544,4.1603,5.2214,-18.5114
0.9275,0.0042,-0.061,4.2137,1.8626,-18.5725
0.9114,0.0071,-0.0691,4.145,-1.5725,-18.9313
0.9094,0.0073,-0.0635,4.2137,-4.6183,-18.3206
0.8997,0.011,-0.0662,4.1832,-7.626,-17.5573
0.8894,0.011,-0.0754,4.4733,-10.2748,-17.0
0.8735,0.0193,-0.0801,4.4046,-12.5649,-15.6031
0.8713,0.0168,-0.082,4.5725,-14.5725,-14.4351
0.8647,0.0232,-0.0864,4.7023,-16.4198,-12.4504
0.8589,0.0225,-0.0825,4.626,-18.1221,-10.8015
0.8623,0.0264,-0.0784,4.5725,-19.855,-8.6718
0.8689,0.0291,-0.074,4.3893,-21.9389,-6.1908
0.8723,0.0344,-0.0701,4.0458,-23.2519,-3.7176
0.8779,0.0347,-0.0671,3.8626,-24.6183,-1.6947
0.8884,0.0371,-0.0732,3.542,-25.7863,0.6947
0.8989,0.0337,-0.0681,3.2595,-26.3435,2.626
0.9141,0.0349,-0.0732,2.8321,-26.8931,4.6031
0.9299,0.0317,-0.0784,2.8092,-26.4809,6.3893
0.9431,0.0332,-0.0781,2.3053,-26.3817,8.1145
0.9597,0.0276,-0.0803,2.4046,-25.9237,9.3206
0.9797,0.0232,-0.0796,2.5038,-24.9924,10.2443
0.9866,0.0288,-0.0754,2.687,-23.9313,10.9389
1.0042,0.0234,-0.0671,2.9008,-22.8092,11.7939
1.0164,0.0234,-0.0686,3.2061,-21.8015,11.9695
1.0347,0.0205,-0.0659,3.8168,-20.7863,12.3435
1.0469,0.0151,-0.0627,4.3664,-19.9008,12.2443
1.0759,0.0198,-0.0657,4.7557,-19.1298,12.2366
1.0903,0.0105,-0.0637,5.6947,-18.3893,12.084
1.1072,0.0161,-0.0684,6.2901,-17.8779,11.7557
1.1128,0.0139,-0.0637,6.6412,-16.9084,10.8702
1.1323,0.022,-0.0889,7.5496,-15.374,10.0687
1.1375,0.0178,-0.0918,8.2672,-13.6336,8.6336
1.1514,0.0173,-0.0996,8.5573,-11.9695,7.2137
1.158,0.0149,-0.1045,9.0305,-10.1069,6.084
1.1606,0.0144,-0.1091,9.4351,-8.1298,4.0534
1.1555,0.0208,-0.1333,9.6718,-6.5878,2.4504
1.1545,0.0244,-0.1179,9.6641,-4.8321,1.0763
1.1528,0.0269,-0.1274,9.5191,-3.687,-0.4198
1.1421,0.0298,-0.1213,9.7557,-2.1527,-1.855
1.1326,0.033,-0.1267,9.2977,-1.0763,-3.1145
1.1292,0.0415,-0.1228,9.4504,-0.1756,-3.9847
1.113,0.0388,-0.1245,9.2366,0.6641,-4.7481
1.1028,0.041,-0.1206,8.9847,1.5496,-5.5573
1.0962,0.0417,-0.1228,8.9618,1.8931,-6.0305
1.0833,0.0466,-0.1223,8.626,2.374,-6.3969
1.0684,0.0452,-0.1338,8.3969,3.2672,-6.5038
1.0598,0.0471,-0.1294,8.2214,3.2214,-6.313
1.0483,0.054,-0.1265,7.8702,3.2595,-6.4427
1.0364,0.0522,-0.1301,7.4198,3.0992,-6.1298
1.0278,0.0542,-0.1274,7.2672,2.6641,-6.0
1.0222,0.0571,-0.1255,7.0458,2.0229,-5.4656
1.0107,0.0596,-0.1206,6.6412,1.1832,-5.4046
1.0137,0.0576,-0.1257,6.3588,0.2595,-5.0
0.9993,0.0598,-0.1228,6.0687,-0.9008,-4.6412
1.002,0.0605,-0.1208,5.5649,-1.9695,-4.4198
