ax,ay,az,gx,gy,gz
1.4507,0.2373,-0.0469,9.0763,-38.4427,-5.2214
1.499,0.2371,-0.0706,10.145,-42.8473,-6.0687
1.5532,0.239,-0.0781,11.1603,-46.8397,-7.1374
1.6047,0.2366,-0.1033,11.916,-50.6183,-8.9084
1.6321,0.2346,-0.1062,12.7099,-54.2061,-10.6336
1.7004,0.2356,-0.1355,13.5649,-57.3511,-13.0305
1.7629,0.2383,-0.1523,13.9389,-59.7481,-16.0305
1.8176,0.239,-0.1743,14.3053,-61.4351,-19.5802
1.8833,0.2407,-0.197,14.8397,-62.3664,-23.8855
1.9497,0.24,-0.2036,14.8855,-63.5191,-28.5191
1.9999,0.2334,-0.2061,14.7176,-64.9084,-33.8473
1.9999,0.2227,-0.2219,14.6489,-66.1221,-40.0229
1.9999,0.2231,-0.2209,14.1832,-67.3435,-45.8015
1.9999,0.2029,-0.2209,13.626,-69.0916,-53.687
1.9999,0.2036,-0.2202,12.7939,-70.4962,-61.1679
1.9999,0.2021,-0.2253,11.9313,-71.8321,-69.1832
1.9999,0.2034,-0.238,11.3817,-72.0534,-78.0
1.9999,0.1978,-0.2454,10.374,-71.5802,-86.4504
1.9999,0.1943,-0.2283,9.1527,-71.3664,-95.7023
1.9999,0.1873,-0.2395,8.458,-70.2443,-104.6336
1.9999,0.1768,-0.2512,7.7328,-68.374,-114.2137
1.9999,0.1746,-0.2563,6.8855,-65.6031,-122.7328
1.9999,0.1794,-0.2581,6.1374,-62.1221,-132.9389
1.9999,0.1755,-0.2656,5.2824,-57.916,-142.3282
1.9999,0.165,-0.2627,4.7176,-52.7786,-151.2137
1.9999,0.1558,-0.2705,3.771,-47.1985,-159.8321
1.9999,0.1633,-0.2695,3.1221,-41.3893,-167.7634
1.9999,0.1628,-0.2656,2.0458,-35.916,-175.5954
1.9999,0.1709,-0.2571,1.4427,-30.855,-182.5343
1.9999,0.1807,-0.2546,0.6412,-25.8855,-189.2214
1.9999,0.1892,-0.2551,0.084,-21.2519,-194.9618
1.9999,0.1934,-0.2505,-0.6718,-17.3588,-200.4733
1.9999,0.2048,-0.2593,-1.3053,-13.7786,-205.9389
1.9999,0.1985,-0.2617,-2.2443,-10.1527,-211.0687
1.9999,0.2031,-0.2551,-3.3893,-6.6183,-216.1069
1.9999,0.1892,-0.2507,-4.4962,-3.0916,-221.4733
1.9999,0.1902,-0.2622,-6.1603,0.0,-226.7176
1.9999,0.1794,-0.2493,-7.8244,3.2061,-232.1603
1.9999,0.1777,-0.2512,-9.5191,5.6412,-237.7786
1.9999,0.1733,-0.2415,-11.2061,7.7557,-243.7023
1.9999,0.1636,-0.2261,-12.9313,8.9466,-250.1374
1.9999,0.157,-0.2151,-14.6489,8.8397,-250.1374
1.9999,0.147,-0.2048,-16.2672,7.8473,-250.1374
1.9999,0.1462,-0.1924,-17.916,6.0382,-250.1374
1.9999,0.1311,-0.1631,-20.0992,3.5344,-250.1374
1.9999,0.1125,-0.1365,-22.5344,0.3893,-250.1374
1.9999,0.0967,-0.1067,-24.7328,-3.2443,-250.1374
1.9999,0.0789,-0.0742,-27.6565,-8.084,-250.1374
1.9999,0.0569,-0.0425,-29.7328,-11.5878,-250.1374
1.9999,0.0474,-0.0005,-31.8015,-15.3664,-250.1374
1.9999,0.0337,0.0461,-33.5115,-19.4427,-250.1374
1.9999,0.0266,0.0701,-34.8473,-23.2977,-250.1374
1.9999,0.0264,0.1233,-35.6718,-27.8015,-250.1374
1.9999,0.0085,0.1646,-36.2137,-32.1603,-250.1374
1.9999,-0.0217,0.2251,-36.1374,-36.8015,-250.1374
1.9999,-0.0415,0.2607,-35.458,-41.3969,-250.1374
1.9999,-0.0669,0.2966,-34.374,-44.8855,-250.1374
1.9999,-0.0859,0.325,-32.7557,-48.1985,-250.1374
1.9999,-0.1016,0.3535,-30.3206,-50.0611,-250.1374
1.9999,-0.1089,0.3601,-27.5802,-50.9466,-250.1374
1.9999,-0.1265,0.373,-23.7099,-50.7863,-250.1374
1.9999,-0.146,0.3757,-19.8779,-49.3817,-250.1374
1.9999,-0.1506,0.387,-15.4275,-46.916,-250.1374
1.9999,-0.165,0.3938,-10.6947,-43.3282,-250.1374
1.9783,-0.186,0.3955,-5.313,-39.229,-250.1374
1.9438,-0.1982,0.3848,0.2977,-35.1298,-250.1374
1.9075,-0.2056,0.364,6.0382,-30.9542,-250.1374
1.895,-0.2134,0.3486,11.7481,-26.771,-250.1374
1.866,-0.2065,0.3132,18.0534,-21.626,-250.1374
1.8376,-0.2102,0.2837,23.7023,-15.9695,-250.1374
1.7957,-0.2043,0.2371,29.0534,-9.4733,-250.1374
1.7495,-0.2058,0.1963,33.9313,-2.0305,-250.1374
1.6953,-0.1897,0.1365,38.542,6.6641,-250.1374
1.6355,-0.1787,0.0857,42.5344,15.6031,-250.1374
1.5801,-0.1687,0.0574,45.7939,24.2137,-250.1374
1.5168,-0.1638,0.0354,48.771,31.2595,-250.1374
1.4529,-0.1492,0.0022,50.8473,37.855,-250.1374
1.4231,-0.1438,-0.0024,52.6183,42.9313,-250.1374
1.3479,-0.1274,-0.0388,54.084,46.4275,-250.1374
1.2888,-0.1201,-0.062,54.9466,48.8397,-250.1374
1.2263,-0.1213,-0.0952,55.8397,50.0076,-250.1374
1.1589,-0.1123,-0.1238,55.7405,51.229,-250.1374
1.1077,-0.1155,-0.1387,55.2595,51.7939,-250.1374
1.0352,-0.1067,-0.168,54.5267,52.6031,-250.1374
0.9622,-0.0876,-0.1833,53.4885,54.4275,-250.1374
0.9233,-0.0818,-0.1846,52.3893,56.5725,-250.1374
0.8464,-0.0674,-0.1997,51.1298,59.229,-250.1374
0.7612,-0.0593,-0.2239,50.0534,62.6489,-250.1374
0.6804,-0.0466,-0.2187,49.1221,66.4504,-250.1374
0.5955,-0.0369,-0.2178,48.4351,70.7557,-250.1374
0.5042,-0.0376,-0.2119,48.1603,75.2061,-250.1374
0.418,-0.0344,-0.2202,48.2672,79.6183,-250.1374
0.325,-0.0195,-0.2283,48.6336,84.4427,-250.1374
0.2815,-0.02,-0.2341,49.3969,89.7634,-250.1374
0.1917,-0.0166,-0.23,50.8702,94.0916,-250.1374
0.1128,-0.0134,-0.2129,52.1069,97.8244,-250.1374
0.031,-0.0122,-0.2131,53.6031,100.8931,-250.1374
-0.042,-0.0093,-0.2175,56.0076,103.229,-250.1374
-0.1011,-0.0049,-0.2205,58.4198,104.145,-250.1374
-0.1597,0.0093,-0.2183,61.2595,103.0076,-250.1374
-0.2224,0.0212,-0.217,63.9771,101.626,-250.1374
-0.2744,0.04,-0.22,67.3817,98.1527,-250.1374
-0.3176,0.0405,-0.2163,69.6641,93.8855,-250.1374
-0.3638,0.0496,-0.2024,71.7099,89.4809,-250.1374
-0.3921,0.0508,-0.2158,73.3588,84.0687,-250.1374
-0.4302,0.0601,-0.2148,74.7328,78.4351,-250.1374
-0.4441,0.0632,-0.2126,75.8092,72.4275,-250.1374
-0.4714,0.0642,-0.2161,76.5115,65.1603,-250.1374
-0.4919,0.0562,-0.2253,77.2824,57.5725,-250.1374
-0.5093,0.0579,-0.2224,77.6183,49.5344,-250.1374
-0.5181,0.063,-0.229,77.5954,41.1985,-250.1374
-0.5312,0.0593,-0.2334,77.4657,32.8168,-250.1374
-0.5481,0.064,-0.2312,77.5267,24.3206,-250.1374
-0.5574,0.0762,-0.24,77.4733,16.7328,-250.1374
-0.5667,0.092,-0.2427,77.1221,9.9771,-250.1374
-0.5669,0.0986,-0.2429,76.9084,3.6565,-250.1374
-0.5649,0.095,-0.2573,76.5115,-1.6412,-250.1374
-0.5857,0.0906,-0.2847,76.4504,-5.0992,-250.1374
-0.5981,0.1011,-0.3008,76.6794,-7.9389,-250.1374
-0.6133,0.1155,-0.2996,77.2595,-10.4046,-250.1374
-0.6384,0.1184,-0.304,78.084,-12.3588,-250.1374
-0.6675,0.1289,-0.3154,78.542,-13.3664,-250.1374
-0.6907,0.1372,-0.3335,79.1756,-14.3511,-250.1374
-0.7085,0.1396,-0.3223,79.6718,-14.687,-250.1374
-0.739,0.1409,-0.3237,80.0153,-14.2061,-250.1374
-0.7776,0.1489,-0.3306,80.4351,-13.8092,-250.1374
-0.8044,0.1594,-0.3484,80.9771,-13.374,-250.1374
-0.8513,0.1655,-0.3606,81.3206,-12.6794,-250.1374
-0.8792,0.186,-0.377,81.5038,-11.5878,-250.1374
-0.9233,0.1978,-0.3931,81.5038,-9.7939,-250.1374
-0.9653,0.2214,-0.4119,81.4122,-7.7863,-250.1374
-1.0088,0.2527,-0.4285,81.2366,-5.3893,-250.1374
-1.0183,0.2637,-0.4353,80.8397,-2.9847,-250.1374
-1.0627,0.2771,-0.4524,80.0687,-0.1756,-250.1374
-1.1016,0.2935,-0.4768,79.1908,2.2595,-250.1374
-1.1274,0.3044,-0.4897,77.8702,4.3282,-242.5343
-1.1492,0.321,-0.5127,76.3359,5.145,-232.313
-1.1685,0.3193,-0.5198,74.4962,4.4656,-221.8015
-1.1711,0.3232,-0.5217,72.5878,2.3053,-211.1374
-1.1785,0.323,-0.5232,70.687,-2.2824,-200.3664
-1.1704,0.3203,-0.5276,68.1679,-8.7176,-190.0763
-1.145,0.3157,-0.5293,65.3053,-16.8397,-180.6488
-1.1377,0.3201,-0.542,62.313,-25.9771,-171.4504
-1.1204,0.3201,-0.5601,59.5267,-34.4275,-163.8397
-1.0918,0.3315,-0.5745,56.6412,-41.8931,-156.9466
-1.0564,0.3494,-0.5935,53.4656,-48.2366,-151.5038
-1.0142,0.3486,-0.6206,50.4809,-52.5802,-146.3664
-0.9731,0.3606,-0.6533,47.3435,-55.4198,-142.0534
-0.9529,0.3608,-0.666,43.8244,-55.9618,-138.6794
-0.9194,0.3621,-0.6921,40.0992,-54.6641,-134.4351
-0.887,0.3474,-0.6948,36.4504,-52.1603,-131.1298
-0.8525,0.3401,-0.7139,32.6565,-48.1374,-127.9618
-0.8218,0.3362,-0.7163,29.1756,-44.0,-124.8092
-0.801,0.3335,-0.7009,25.6718,-39.8092,-121.2824
-0.7881,0.3318,-0.6921,22.5038,-36.458,-117.916
-0.7588,0.3259,-0.6624,18.374,-32.7557,-113.8244
-0.74,0.3157,-0.6528,15.374,-31.7863,-109.9771
-0.7214,0.3054,-0.6274,13.1756,-32.0076,-107.1145
-0.7061,0.2944,-0.6111,11.1221,-33.3359,-104.5343
-0.6936,0.2839,-0.5911,9.3817,-34.5038,-102.2214
-0.6768,0.291,-0.5894,7.5573,-35.9084,-100.3053
-0.6653,0.2988,-0.5693,6.2214,-36.6718,-99.1832
-0.6604,0.3125,-0.5625,4.7328,-36.7939,-98.6412
-0.6467,0.3113,-0.5667,3.2214,-36.0305,-96.5878
-0.6492,0.3201,-0.5564,2.0305,-34.3206,-97.7557
-0.6433,0.3188,-0.5596,0.5344,-31.4809,-95.4504
-0.6511,0.3154,-0.5623,-1.0458,-28.2977,-93.6183
-0.6672,0.3167,-0.5603,-2.9237,-24.1145,-93.0153
-0.6841,0.3162,-0.5513,-4.7634,-19.7939,-92.8168
-0.7073,0.3289,-0.5352,-6.5344,-15.1832,-91.2061
-0.7375,0.3271,-0.5256,-8.626,-11.2977,-87.2824
-0.7688,0.3416,-0.4985,-10.313,-7.4198,-84.3664
-0.7974,0.3452,-0.4822,-12.0916,-3.4656,-80.5496
-0.8147,0.3481,-0.4729,-13.4351,-0.0611,-76.3282
-0.8511,0.3538,-0.4468,-14.6565,3.0,-71.687
-0.8901,0.3411,-0.425,-15.4427,5.7557,-66.4885
-0.9253,0.3433,-0.408,-16.3588,8.6794,-60.2214
-0.9551,0.3425,-0.3977,-16.9084,10.0763,-54.1374
-0.991,0.353,-0.3811,-16.916,11.2824,-48.0382
-1.0183,0.353,-0.3591,-16.8626,11.9389,-41.8626
-1.0476,0.3538,-0.3516,-16.5725,11.6718,-35.7634
-1.0688,0.3503,-0.3389,-16.4122,10.9313,-29.5649
-1.0818,0.3484,-0.3335,-16.4198,9.5038,-23.2214
-1.0908,0.355,-0.3274,-16.4046,7.3053,-17.0916
-1.1189,0.3511,-0.324,-16.1985,5.3359,-11.2366
-1.125,0.3469,-0.3125,-16.5802,2.7786,-5.6336
-1.1399,0.3489,-0.3093,-16.916,0.0229,0.0
-1.1497,0.3525,-0.311,-17.229,-3.0305,5.5573
-1.1538,0.353,-0.3091,-17.4504,-5.8473,11.084
-1.1604,0.3574,-0.3142,-17.8168,-8.4275,16.8626
-1.1565,0.3579,-0.3142,-18.1527,-10.9084,22.3511
-1.1638,0.3496,-0.3164,-18.7863,-13.5649,28.2443
-1.1755,0.3538,-0.3206,-19.2519,-15.542,34.1832
-1.175,0.3525,-0.3254,-19.7557,-17.7023,39.9695
-1.1772,0.3503,-0.3328,-20.2977,-19.0153,46.0076
-1.1924,0.3557,-0.3411,-20.7023,-19.6489,52.1756
-1.1965,0.3621,-0.3533,-21.145,-19.6031,57.9237
-1.217,0.3655,-0.3638,-21.7176,-18.771,64.1832
-1.228,0.3672,-0.3699,-21.7176,-17.4046,69.8015
-1.2512,0.3669,-0.3799,-22.2519,-15.1145,76.1756
-1.2688,0.3677,-0.3979,-22.5725,-12.4656,82.771
-1.3074,0.3809,-0.4001,-23.0611,-9.7328,89.1985
-1.3301,0.3923,-0.418,-23.7939,-7.1985,96.7939
-1.3657,0.3967,-0.4111,-24.8168,-5.2977,104.1527
-1.3999,0.4016,-0.4175,-26.0,-4.4122,112.4427
-1.4341,0.396,-0.4065,-27.3969,-4.4733,121.2061
-1.4524,0.4021,-0.4067,-29.2061,-5.7634,130.2366
-1.4707,0.3999,-0.4053,-31.1069,-8.0458,139.7939
-1.4856,0.4106,-0.3984,-33.4427,-10.3969,149.6336
-1.5005,0.4153,-0.394,-36.1298,-13.7557,161.9084
-1.5017,0.415,-0.4004,-38.855,-16.4046,172.7634
-1.4968,0.4177,-0.4089,-41.4351,-18.6718,184.5038
-1.4875,0.4185,-0.426,-44.2137,-20.0076,195.7252
-1.4944,0.418,-0.4316,-46.771,-20.3282,207.084
-1.4778,0.4155,-0.4419,-49.3664,-20.7863,218.0992
-1.4624,0.4028,-0.4348,-52.2061,-20.9389,230.0763
-1.4607,0.394,-0.4336,-54.9008,-20.7939,241.1374
-1.4353,0.3789,-0.4238,-57.6565,-20.458,250.1298
-1.4131,0.3618,-0.4258,-60.4351,-19.687,250.1298
-1.394,0.3528,-0.4221,-63.2366,-18.374,250.1298
-1.3743,0.345,-0.425,-65.8855,-17.0076,250.1298
-1.3428,0.3264,-0.4155,-68.5267,-14.9008,250.1298
-1.3174,0.3035,-0.4111,-70.5802,-12.5267,250.1298
-1.2822,0.2742,-0.3901,-72.8244,-10.3053,250.1298
-1.2549,0.2603,-0.3696,-74.855,-8.084,250.1298
-1.2192,0.2412,-0.3503,-76.6183,-6.3588,250.1298
-1.188,0.2192,-0.3286,-78.0763,-5.4046,250.1298
-1.1702,0.2012,-0.3193,-79.5191,-4.7176,250.1298
-1.1387,0.1833,-0.2981,-80.4962,-4.8168,250.1298
-1.1013,0.1589,-0.269,-81.2748,-5.3435,250.1298
-1.0625,0.1384,-0.2473,-81.7557,-6.6794,250.1298
-1.0149,0.1121,-0.2241,-82.1908,-8.6947,250.1298
-0.9626,0.0842,-0.1975,-81.9924,-12.458,250.1298
-0.9063,0.0654,-0.1804,-81.6565,-17.4351,250.1298
-0.8306,0.0293,-0.1545,-81.5573,-24.5496,250.1298
-0.7495,0.0,-0.1238,-80.8321,-33.8702,250.1298
-0.7075,-0.011,-0.1111,-79.916,-45.626,250.1298
-0.615,-0.0537,-0.0906,-79.1145,-59.1679,250.1298
-0.4995,-0.092,-0.0852,-77.8779,-74.229,250.1298
-0.3948,-0.1135,-0.0757,-76.4733,-90.1374,250.1298
-0.2793,-0.1265,-0.0869,-74.8321,-105.2366,250.1298
-0.1562,-0.1379,-0.0974,-72.9695,-119.3053,250.1298
-0.0347,-0.1462,-0.126,-70.4427,-131.9542,250.1298
0.0776,-0.1367,-0.1438,-67.9695,-143.145,250.1298
0.1318,-0.1306,-0.1602,-65.4275,-150.9924,250.1298
0.2419,-0.1184,-0.1907,-61.6947,-155.6794,250.1298
0.3406,-0.0991,-0.2363,-58.7328,-157.2672,250.1298
0.4324,-0.0967,-0.2766,-55.313,-155.8931,250.1298
0.5129,-0.0759,-0.3152,-52.0916,-151.229,250.1298
0.5791,-0.0566,-0.3479,-49.1221,-144.1756,250.1298
0.6375,-0.0271,-0.3652,-46.4046,-135.1832,250.1298
0.6755,-0.0039,-0.3848,-44.2443,-124.0687,250.1298
0.6899,0.0129,-0.3896,-42.3435,-112.7252,250.1298
0.697,0.0481,-0.3987,-40.626,-98.6565,250.1298
0.6943,0.0879,-0.4028,-39.5725,-85.0153,250.1298
0.6755,0.1318,-0.3779,-38.916,-69.7023,250.1298
0.6445,0.1545,-0.3684,-38.6565,-54.7252,250.1298
0.5977,0.1833,-0.3459,-38.3053,-41.0382,250.1298
0.5364,0.1936,-0.3271,-38.7176,-27.6565,250.1298
0.4841,0.2065,-0.292,-38.9008,-15.4885,250.1298
0.4341,0.2207,-0.2542,-38.9771,-4.5115,250.1298
0.407,0.2288,-0.2429,-38.8168,4.2061,250.1298
0.3665,0.2341,-0.2129,-38.9237,12.2824,250.1298
0.3086,0.2393,-0.1582,-38.3969,19.9466,250.1298
0.2939,0.2351,-0.1448,-38.1679,25.0382,250.1298
0.2651,0.229,-0.115,-37.6641,29.7405,250.1298
0.2456,0.2117,-0.0913,-37.2366,33.542,250.1298
0.2283,0.1873,-0.061,-36.6031,36.8626,250.1298
0.2239,0.1692,-0.0352,-35.9542,39.1756,250.1298
0.2209,0.1426,-0.0186,-35.1069,41.4122,250.1298
0.2266,0.1106,0.0293,-34.2214,42.8321,250.1298
0.2515,0.0776,0.0549,-33.0687,42.7481,250.1298
0.2996,0.0366,0.1106,-32.0,40.5344,250.1298
0.3308,0.01,0.1333,-30.5191,35.1145,250.1298
0.4133,-0.0396,0.1682,-28.6718,25.145,250.1298
0.5366,-0.0859,0.2031,-26.3588,10.5344,250.1298
0.6675,-0.1367,0.2258,-23.3511,-8.9389,250.1298
0.8215,-0.1702,0.2249,-19.5344,-31.5573,250.1298
0.9893,-0.1909,0.208,-15.0305,-55.7405,250.1298
1.1694,-0.1975,0.1709,-9.9008,-80.4885,250.1298
1.3611,-0.1919,0.1152,-4.7863,-104.1756,250.1298
1.4622,-0.1846,0.0947,0.7481,-123.5496,250.1298
1.647,-0.1924,0.0105,6.0916,-142.4504,250.1298
1.8452,-0.1919,-0.0718,10.542,-156.1374,250.1298
1.9999,-0.1921,-0.1763,14.2595,-165.9618,250.1298
1.9999,-0.1809,-0.2908,17.4809,-171.9542,250.1298
1.9999,-0.1665,-0.396,19.4046,-173.4886,250.1298
1.9999,-0.1362,-0.4919,20.3359,-171.0916,250.1298
1.9999,-0.0923,-0.5627,19.7252,-165.2214,250.1298
1.9999,-0.0247,-0.6272,17.5649,-156.2824,250.1298
1.9999,0.0005,-0.6523,14.3206,-144.9771,250.1298
1.9999,0.0754,-0.6711,10.0,-133.1908,250.1298
1.9999,0.1321,-0.6692,4.7557,-120.9542,250.1298
1.9999,0.1921,-0.6558,-1.5191,-110.1069,244.5496
1.9999,0.2495,-0.6299,-7.6107,-100.3359,222.1908
1.9999,0.2896,-0.6123,-14.0305,-93.5802,200.8244
1.9999,0.3333,-0.5771,-20.9695,-84.6489,179.5573
1.9999,0.3577,-0.5469,-26.9084,-78.3435,161.5267
1.9999,0.3718,-0.5361,-32.4198,-73.1221,145.9389
1.9999,0.3945,-0.4932,-38.0382,-67.2061,130.1527
1.9999,0.4053,-0.4521,-42.3588,-60.8092,116.4885
1.9999,0.4292,-0.4231,-46.1908,-54.1221,104.9847
1.9999,0.4429,-0.3813,-49.2061,-46.5191,94.6947
1.9999,0.4548,-0.3184,-51.0611,-39.0229,85.7481
1.9999,0.4587,-0.2712,-52.2061,-31.6565,77.374
1.9999,0.4724,-0.2532,-52.374,-21.9466,70.916
1.9999,0.4792,-0.2612,-51.4962,-11.0687,66.2061
1.9999,0.481,-0.2297,-49.9542,1.9695,61.9466
1.9999,0.4858,-0.1729,-48.1756,13.8626,58.9389
1.9999,0.4988,-0.1384,-45.5725,25.3969,56.771
1.9915,0.5068,-0.0933,-42.0229,36.4351,55.855
1.9038,0.519,-0.061,-38.542,46.6031,55.4275
1.8176,0.5364,-0.0239,-35.0611,55.9313,56.0
1.7349,0.5413,-0.0015,-31.4046,64.3893,57.2443
1.6536,0.5474,0.0239,-27.9313,71.6794,59.2519
1.6223,0.5574,0.0369,-24.0763,78.3359,61.6031
1.5435,0.5613,0.0623,-20.855,83.2748,64.084
1.4417,0.5737,0.1025,-16.9313,87.4275,67.5649
1.4153,0.5789,0.1001,-13.7252,88.8092,70.5725
1.365,0.5757,0.1267,-10.4198,89.1908,74.0534
1.3083,0.5796,0.1316,-7.5878,87.6641,77.2748
1.2686,0.5876,0.1528,-4.7863,84.9695,80.5802
1.2292,0.5896,0.1487,-1.6794,81.2672,83.6183
1.2017,0.5894,0.1438,0.6718,77.374,86.313
1.1709,0.5916,0.1433,3.2214,72.687,88.8168
1.1514,0.5891,0.1467,5.6107,67.7939,90.8244
1.135,0.5806,0.1335,8.0687,62.5038,92.7023
1.116,0.5806,0.1221,10.4046,56.6641,94.3664
1.1062,0.5752,0.1135,12.3511,50.9542,95.6947
1.1001,0.5681,0.1045,14.4046,45.0916,96.8321
1.0918,0.5657,0.0937,16.2443,38.771,98.0534
1.0862,0.5718,0.0818,18.2519,32.4351,99.3053
1.0796,0.5737,0.0664,20.2214,25.9084,100.3664
1.0847,0.561,0.0476,21.8931,18.6183,101.0916
1.104,0.552,0.033,23.3282,10.9389,102.4885
1.1121,0.5369,0.0105,25.0382,3.0916,103.5191
1.1167,0.53,-0.0078,25.9924,-5.2519,104.5725
1.137,0.5308,-0.0193,26.855,-13.374,105.6489
1.177,0.5293,-0.0422,27.6183,-21.8321,105.3435
1.2144,0.5315,-0.0698,27.7634,-30.0611,105.374
1.26,0.5386,-0.0884,27.8779,-37.3282,104.1985
1.3018,0.5381,-0.1067,28.0763,-44.0305,102.8397
1.3586,0.5293,-0.1338,27.3969,-49.5344,100.6031
1.4084,0.5283,-0.178,26.8168,-53.9466,98.4275
1.4653,0.5271,-0.2026,26.1908,-56.9695,95.229
1.4883,0.52,-0.2156,25.4275,-58.3511,91.4198
1.5286,0.5183,-0.2568,24.3053,-58.3893,87.5802
1.574,0.5149,-0.2764,23.3359,-57.4122,83.2748
1.6057,0.5115,-0.2898,22.0534,-55.1832,78.2214
1.6294,0.5173,-0.3115,20.5267,-51.9695,73.4122
1.6541,0.5225,-0.3203,19.2061,-48.3359,68.7481
1.6545,0.5261,-0.3374,18.0611,-43.4962,63.6794
1.6648,0.5295,-0.3416,16.3511,-38.3511,58.7939
1.6621,0.5293,-0.343,14.6947,-32.1756,54.4656
1.6577,0.522,-0.3435,13.4122,-25.229,50.0076
1.646,0.5227,-0.3459,11.8015,-17.9924,46.1603
1.6216,0.5273,-0.3467,10.1145,-10.458,42.7863
1.5964,0.5337,-0.3386,8.7176,-2.8015,39.5725
1.561,0.5413,-0.325,7.3588,4.458,36.9542
1.5183,0.5488,-0.3135,6.2137,11.3359,34.9084
1.4856,0.5513,-0.2773,5.2901,17.3282,33.4122
1.4531,0.5562,-0.2725,4.0763,22.8473,31.626
1.4072,0.5522,-0.2544,3.1679,27.4962,30.7405
1.374,0.554,-0.2393,2.313,31.0534,29.7176
1.3259,0.553,-0.218,1.5038,33.8473,28.9466
1.2883,0.5466,-0.1931,0.7939,36.374,28.8931
1.2488,0.5422,-0.1724,0.145,37.8321,28.5802
1.2126,0.5366,-0.1685,-0.1298,38.5725,28.6412
1.1833,0.54,-0.1455,-0.3282,39.145,28.5344
1.1663,0.5266,-0.1396,-0.3893,39.3664,28.9084
1.1399,0.5247,-0.1289,-0.4275,39.1679,29.1374
1.0957,0.5151,-0.1089,-0.0305,38.2214,29.687
1.0723,0.5142,-0.083,0.4504,36.9771,30.0687
1.0496,0.5076,-0.073,0.9542,34.4275,30.6031
1.0232,0.498,-0.0471,2.0458,31.8168,30.9695
1.0161,0.4905,-0.0391,3.1985,28.2214,31.7634
1.0071,0.4905,-0.0347,4.0687,24.5573,32.229
0.9929,0.4866,-0.0305,5.4122,20.0992,32.9084
0.9873,0.4785,-0.0178,7.145,15.145,33.6107
0.9863,0.4807,-0.021,8.542,10.458,34.4809
0.9834,0.4758,-0.0317,10.2366,5.4351,34.9466
0.9897,0.4734,-0.033,11.9695,0.5954,35.4885
1.0005,0.4658,-0.0437,13.771,-4.7863,36.2061
1.0156,0.4666,-0.0574,15.0992,-9.8626,36.542
1.0254,0.4678,-0.0618,16.4809,-14.313,36.4733
1.042,0.467,-0.0625,18.1145,-19.0382,36.4504
1.0603,0.4724,-0.0815,19.3435,-22.9313,36.4122
1.0886,0.4824,-0.1045,20.2672,-26.0,35.8244
1.1189,0.4807,-0.1226,21.0763,-29.0382,35.2519
1.1416,0.4753,-0.1387,21.8092,-31.2214,34.3893
1.1775,0.4761,-0.1545,22.1527,-32.9237,33.6107
1.208,0.4775,-0.1987,22.5038,-34.3206,32.2824
1.2361,0.4783,-0.2163,22.4275,-34.9084,30.9847
1.2505,0.4836,-0.219,22.0382,-34.8626,29.2214
1.2769,0.4905,-0.2471,22.0,-33.9847,27.5191
1.2988,0.4988,-0.2605,21.4198,-32.5725,25.2519
1.3188,0.4958,-0.2795,20.542,-30.5038,23.229
1.3401,0.5042,-0.2974,19.6489,-27.4275,20.7786
1.3545,0.5027,-0.3169,18.8015,-24.374,18.4046
1.3647,0.5037,-0.3245,17.6641,-20.0305,15.6412
1.3628,0.501,-0.3306,16.3435,-15.8626,13.3588
1.364,0.5044,-0.3362,15.0458,-11.6718,10.9847
1.3628,0.5098,-0.3433,13.8321,-6.8473,8.4351
1.3625,0.5044,-0.3521,11.9924,-2.4122,6.4198
1.3545,0.5178,-0.3437,10.7328,2.0534,4.4962
1.3298,0.5154,-0.3416,9.0687,6.6183,2.8473
1.3149,0.5149,-0.3359,7.8397,11.2443,1.4122
1.2981,0.5229,-0.3154,6.1679,15.3969,0.1756
1.2722,0.5205,-0.3181,4.6183,19.8855,-0.4733
1.262,0.5256,-0.3157,3.4198,23.7939,-1.0992
1.2405,0.5156,-0.3076,2.0687,28.0687,-2.0076
1.2234,0.5234,-0.2952,0.8397,32.1221,-2.4809
1.1963,0.5117,-0.2778,-0.4427,35.4733,-2.7634
1.1748,0.5078,-0.2603,-1.3969,38.7023,-3.0458
1.1541,0.5044,-0.25,-2.2137,41.4656,-3.4351
1.1301,0.4956,-0.2271,-3.1069,43.5038,-3.4504
1.1013,0.4915,-0.2178,-3.6336,45.0611,-3.5725
1.0786,0.4856,-0.2092,-3.9847,46.1527,-3.5649
1.0706,0.4824,-0.2048,-4.4122,46.7099,-3.3664
1.0459,0.4729,-0.1956,-4.6565,46.6489,-3.6718
1.0249,0.4731,-0.1719,-4.9008,46.0076,-3.9695
1.0063,0.4626,-0.1648,-5.1374,44.626,-3.9924
0.9827,0.449,-0.1387,-5.1908,42.8321,-4.2595
0.9692,0.4478,-0.1375,-5.1374,40.3282,-4.916
0.9556,0.439,-0.114,-5.3588,37.4962,-5.3053
0.9341,0.449,-0.1062,-5.3893,33.6412,-5.5267
0.9326,0.4358,-0.0991,-5.542,30.1679,-6.1298
0.9155,0.4321,-0.0862,-5.374,26.6489,-6.5802
0.9011,0.4387,-0.0828,-5.0076,22.8779,-6.9313
0.8911,0.4275,-0.0757,-4.5573,19.1603,-7.0687
0.8816,0.4226,-0.0627,-4.2137,15.8168,-7.229
0.8818,0.4326,-0.0681,-3.8931,12.2519,-7.4885
0.8772,0.4285,-0.0613,-3.2443,9.0382,-7.313
0.8679,0.4229,-0.0615,-2.2595,5.8779,-7.1679
0.8713,0.4214,-0.0598,-1.5649,3.1298,-6.6718
0.8633,0.4221,-0.0649,-0.7405,0.7252,-5.855
0.8652,0.4236,-0.0652,-0.1145,-1.6947,-4.7939
0.8667,0.4309,-0.0684,1.084,-3.6031,-3.6565
0.874,0.4343,-0.0696,1.9313,-5.2977,-2.6947
0.8743,0.4314,-0.084,2.9313,-6.1298,-1.3359
0.8784,0.4338,-0.1003,3.687,-6.8855,-0.0458
0.8914,0.4465,-0.1067,4.626,-6.8931,1.2977
0.8987,0.447,-0.1118,5.1756,-6.4809,2.8168
0.9114,0.4434,-0.1182,5.5496,-6.0534,4.0382
0.9106,0.4519,-0.1104,5.7099,-5.2672,5.1145
0.9216,0.4458,-0.1377,5.687,-3.9847,6.3282
0.9316,0.4509,-0.1389,5.8397,-3.0992,7.1069
0.9382,0.4465,-0.1306,5.855,-1.8702,8.1069
0.9421,0.447,-0.1401,5.6947,-0.8015,8.7557
0.9546,0.4531,-0.1399,5.2519,0.2595,9.7634
0.958,0.4526,-0.1335,4.916,1.1069,10.229
0.9741,0.4534,-0.1367,4.4733,1.771,10.4351
0.9846,0.4556,-0.1418,4.4809,2.3511,10.855
1.0007,0.4609,-0.1372,3.9466,2.8321,11.0992
1.0117,0.4507,-0.1328,3.6336,3.145,10.6641
1.0212,0.4607,-0.1458,3.2595,3.4046,10.4427
1.03,0.4509,-0.1353,2.8473,3.8779,9.7863
1.0476,0.4473,-0.1423,2.313,4.3817,8.6412
1.0632,0.4509,-0.1399,2.0305,5.3206,7.2214
1.0645,0.4417,-0.1423,1.4962,6.2824,6.1908
1.0779,0.4409,-0.1392,0.8931,7.4885,4.8779
1.0771,0.4368,-0.1475,0.4885,8.7786,3.0992
1.0852,0.4358,-0.1387,0.0916,9.8702,1.5573
1.0806,0.4297,-0.1445,-0.313,11.4122,0.0763
1.0803,0.4368,-0.1353,-0.5267,12.5725,-1.7099
1.0723,0.4292,-0.137,-0.9466,13.4504,-3.2748
1.0701,0.4307,-0.1301,-1.2443,14.3969,-4.7481
1.0615,0.4299,-0.1235,-1.4275,15.0992,-6.1985
1.0417,0.4214,-0.1182,-1.5115,15.9389,-7.5496
1.0349,0.4214,-0.1211,-1.7786,16.2977,-8.9695
1.0203,0.4131,-0.1128,-1.8473,17.0153,-10.0229
1.0107,0.4148,-0.114,-1.6947,17.2366,-10.7023
0.998,0.4207,-0.1074,-1.6336,17.458,-11.2977
0.979,0.4146,-0.0959,-1.4885,17.7099,-11.8473
0.9563,0.4175,-0.0908,-1.1756,17.4962,-12.4733
0.9387,0.4121,-0.085,-1.0076,17.2137,-12.4198
0.9285,0.4138,-0.083,-0.5649,16.458,-12.4733
0.9124,0.4177,-0.0774,-0.2519,15.6565,-12.5496
0.8965,0.4241,-0.0684,0.0534,14.4198,-12.2137
0.8899,0.4185,-0.0771,0.3664,13.458,-11.7328
0.874,0.4177,-0.0659,1.0,11.9618,-11.3435
0.8647,0.4226,-0.0674,1.4351,10.6031,-10.3511
0.8535,0.4272,-0.0649,1.8702,9.5725,-9.9008
0.8562,0.426,-0.0803,2.1145,8.7252,-9.2748
0.8428,0.4277,-0.0776,2.7863,7.7328,-7.9695
0.8391,0.4365,-0.0754,3.3817,7.0534,-7.1221
0.8345,0.4385,-0.0706,3.9008,6.3664,-5.8855
0.8359,0.4358,-0.0759,4.4504,5.5725,-4.7099
0.8293,0.4429,-0.0657,5.0,5.0153,-3.2519
0.8271,0.4419,-0.0715,5.542,4.0992,-1.9771
0.8323,0.4473,-0.0784,6.2443,3.1221,-0.5649
0.8286,0.4541,-0.0706,6.8168,2.0611,1.1985
0.8459,0.4531,-0.0752,7.3359,1.0687,2.6489
0.8499,0.4558,-0.0752,7.7634,0.3435,4.1679
0.8589,0.4585,-0.0854,8.4504,-0.7328,5.4198
0.8682,0.4626,-0.0852,8.8168,-1.1298,6.6336
0.8875,0.4617,-0.0957,9.1069,-1.5649,7.5954
0.896,0.4663,-0.0969,9.0229,-1.7481,8.5725
0.9138,0.457,-0.1182,9.1679,-1.374,9.4427
0.9255,0.4617,-0.123,9.1679,-0.7099,10.1908
0.9412,0.4629,-0.1182,8.855,-0.0153,10.7405
0.9514,0.4619,-0.1208,8.6565,0.7023,10.916
0.9646,0.4609,-0.1282,8.5725,1.6183,11.2901
0.9736,0.4622,-0.1252,8.2214,2.4885,11.3588
0.9829,0.4678,-0.125,7.7939,3.229,11.3893
0.998,0.4592,-0.127,7.5191,4.1374,10.8397
1.002,0.4639,-0.1177,7.1679,4.9771,10.8244
1.0063,0.4585,-0.1338,6.9008,6.0992,10.374
1.0132,0.4604,-0.126,6.4733,6.9924,9.7634
1.0176,0.4609,-0.1309,6.0916,7.6412,9.2214
1.0193,0.4617,-0.114,5.6718,8.5954,8.7176
1.0256,0.4565,-0.1174,5.3969,9.374,7.9771
1.0186,0.4546,-0.1155,5.2519,10.0153,7.1603
1.0127,0.4509,-0.1079,4.8473,10.2901,6.6489
1.0142,0.4451,-0.1074,4.9084,10.3206,5.8931
1.0115,0.4458,-0.0974,4.8092,10.0611,4.8092
1.0076,0.4412,-0.094,4.458,9.3435,3.9084
0.9988,0.449,-0.0815,4.7939,7.9542,2.8931
0.9919,0.45,-0.0679,4.8015,6.5344,1.8626
0.9946,0.447,-0.0735,4.9847,4.8855,0.771
0.99,0.4395,-0.0637,5.3588,3.0763,-0.1527
0.9836,0.4358,-0.0681,5.7176,1.2824,-1.5267
0.9805,0.4353,-0.0649,5.8321,-0.855,-2.2443
0.9795,0.4375,-0.0649,6.5496,-2.6947,-3.1985
0.9783,0.4399,-0.072,7.0229,-4.374,-4.2595
0.9788,0.4336,-0.0769,7.458,-6.0611,-5.1145
0.9805,0.4478,-0.0784,7.9771,-7.4809,-5.5344
0.9783,0.4414,-0.0854,8.4962,-8.5267,-6.4198
0.9751,0.4431,-0.0876,9.1756,-9.4733,-6.9695
0.9702,0.4453,-0.1079,9.7252,-10.2443,-7.3817
0.9697,0.4436,-0.1062,10.1527,-10.8702,-7.5115
0.9644,0.4543,-0.1187,10.9313,-11.2824,-7.9542
0.9646,0.46,-0.1235,11.2519,-11.8321,-7.9466
0.9617,0.4636,-0.1294,11.6031,-11.9466,-7.9313
0.9617,0.4626,-0.1453,12.0458,-12.3511,-8.1985
0.9607,0.4773,-0.1555,11.9847,-12.2137,-8.0
0.9543,0.4778,-0.146,12.0916,-12.313,-7.4962
0.9575,0.48,-0.1643,12.0534,-11.8702,-7.5038
0.9587,0.4824,-0.1763,11.8855,-11.3435,-6.9771
0.9563,0.4907,-0.1917,11.9771,-10.7328,-6.5115
0.9617,0.4988,-0.198,11.6718,-9.4198,-6.229
0.9626,0.4963,-0.2019,11.458,-8.458,-6.0
0.9602,0.5042,-0.2048,11.0687,-7.0916,-5.1756
0.9592,0.4995,-0.2124,10.5954,-5.6489,-4.8473
0.9595,0.5068,-0.218,10.3435,-4.1298,-4.4427
0.96,0.5039,-0.217,9.7481,-2.5725,-4.2137
0.9624,0.5061,-0.2273,9.1679,-0.7786,-3.8473
0.9568,0.5022,-0.2256,8.6947,1.1145,-3.7023
0.9524,0.5005,-0.2249,8.3053,2.6107,-3.2061
0.9487,0.4912,-0.2302,7.5573,4.145,-2.7252
0.949,0.4949,-0.2334,7.0,5.5115,-2.2443
0.9329,0.4973,-0.2249,6.4885,6.8855,-1.5191
0.9333,0.4971,-0.2129,5.9771,7.6412,-0.9237
0.926,0.5056,-0.2112,5.2595,8.229,-0.0382
0.9214,0.5029,-0.2144,4.687,8.7099,0.7634
0.9175,0.5042,-0.1924,4.4351,8.6947,1.4198
0.9202,0.501,-0.1885,3.771,8.4809,2.1145
0.9189,0.4958,-0.1917,3.0153,8.5344,2.8092
0.9133,0.4875,-0.1758,2.8092,7.8015,3.3053
0.9155,0.4829,-0.1738,2.5267,7.3588,3.5878
0.9148,0.4834,-0.1685,2.145,6.6641,4.1221
0.9185,0.4807,-0.1597,2.0076,5.7099,4.1832
0.9202,0.4824,-0.1606,1.8397,4.8702,4.3511
0.9365,0.4827,-0.1504,1.4198,3.542,4.2061
0.9368,0.4739,-0.1567,1.1985,2.3359,4.4351
0.9426,0.4675,-0.1462,1.2061,0.771,3.8855
0.9504,0.468,-0.1411,1.0229,-0.7557,3.6031
0.9624,0.47,-0.1379,0.7863,-2.458,2.6183
0.967,0.467,-0.1387,0.6489,-3.6947,1.771
