ax,ay,az,gx,gy,gz
0.1738,0.2588,0.2056,-58.6641,57.5573,-183.4657
0.1477,0.2556,0.2168,-56.3206,57.5802,-180.5649
0.1372,0.2593,0.2192,-53.9313,57.9924,-177.7863
0.0894,0.2551,0.2605,-49.6794,57.8702,-173.458
0.0918,0.2568,0.2688,-46.4122,57.4275,-169.3969
0.0574,0.2632,0.29,-43.3359,56.7099,-165.6718
0.0347,0.2712,0.2888,-40.0305,56.0153,-161.9084
0.0242,0.2825,0.29,-36.3893,55.9313,-157.6947
0.0002,0.2861,0.3008,-32.6641,55.6794,-153.3664
0.0073,0.3108,0.3083,-28.542,55.0763,-148.5878
-0.0044,0.3196,0.322,-24.5878,54.5115,-143.4122
-0.0112,0.3274,0.3203,-20.4351,54.1985,-137.5725
-0.0298,0.3435,0.3303,-16.2748,54.2137,-131.542
-0.0122,0.3694,0.3662,-12.5267,53.4962,-124.9542
-0.0393,0.3943,0.3752,-8.9466,52.5496,-117.9084
-0.0344,0.4092,0.3716,-5.4656,51.5038,-110.7863
-0.022,0.4246,0.3665,-1.6794,50.4275,-103.084
-0.0195,0.4321,0.3499,1.9389,49.2137,-94.9008
-0.009,0.4404,0.3687,5.3053,47.5267,-87.1832
-0.0098,0.446,0.3643,8.1985,45.4656,-78.4885
-0.0205,0.4802,0.3782,11.7176,43.1985,-67.4504
-0.0286,0.4814,0.385,14.3511,40.6794,-59.2824
-0.0208,0.491,0.355,17.2137,37.4504,-49.4122
-0.0205,0.4915,0.3667,19.3588,34.4122,-41.9618
-0.0176,0.4983,0.3804,21.3053,31.5725,-34.2519
-0.0134,0.4995,0.377,23.1527,28.4275,-26.8779
-0.0215,0.5007,0.3809,24.5496,25.2824,-20.1985
-0.011,0.5061,0.3569,26.0534,22.6947,-13.6183
0.0,0.512,0.343,27.229,20.313,-7.5573
0.0051,0.5142,0.3318,28.4504,18.1298,-2.0076
0.0183,0.521,0.3135,29.4733,16.5191,3.1756
0.0256,0.52,0.2979,30.4656,14.9847,8.3664
0.0427,0.5239,0.2844,31.0458,14.084,12.9237
0.0664,0.5156,0.2832,31.5725,13.313,16.8473
0.0596,0.5239,0.2954,32.0229,12.6565,20.5344
0.0757,0.5225,0.2837,32.3435,12.1069,24.0534
0.095,0.5259,0.2732,32.4504,11.9237,27.0534
0.116,0.5256,0.2651,32.8473,11.7939,29.7557
0.1272,0.5322,0.2686,32.7557,11.8626,32.4046
0.1372,0.542,0.2634,32.8473,11.7328,34.9695
0.1497,0.5396,0.2471,33.0916,12.0534,36.7939
0.1704,0.5491,0.2617,33.2061,12.1069,38.8702
0.1687,0.5405,0.2656,33.374,11.9466,40.3893
0.1794,0.5442,0.2605,33.7023,11.8931,42.1832
0.1829,0.5457,0.2646,33.8779,12.0992,43.4046
0.1978,0.5459,0.2568,33.8702,12.3893,44.7252
0.2039,0.5474,0.2461,34.1298,13.0076,45.8092
0.2048,0.5535,0.2537,34.3053,13.4809,46.7099
0.2131,0.5461,0.2393,34.4733,14.1527,47.771
0.2224,0.5459,0.2366,34.771,15.0763,48.7176
0.2217,0.543,0.2429,35.0916,15.5802,49.855
0.2263,0.5493,0.2524,35.4733,16.2519,51.2214
0.2302,0.5479,0.2595,35.7634,16.9542,52.6031
0.2329,0.5583,0.2539,36.6718,17.626,54.1374
0.2488,0.5598,0.2549,37.145,18.2214,56.2977
0.2488,0.5559,0.2573,37.855,18.3282,57.9008
0.2637,0.5601,0.2527,38.7176,18.542,60.2672
0.2712,0.5618,0.2576,39.5191,18.6794,62.5267
0.2773,0.5632,0.2546,40.2137,18.3969,65.1985
0.2793,0.5586,0.2615,41.145,18.5496,67.6947
0.2832,0.5623,0.2646,42.0611,18.9008,69.8855
0.2957,0.5625,0.2563,43.1908,19.1603,72.2824
0.3044,0.5632,0.2649,44.0687,19.374,74.9695
0.3174,0.5632,0.2595,45.1679,19.626,77.2595
0.3376,0.5615,0.262,46.1985,19.8931,79.8397
0.3555,0.5627,0.2432,47.3664,20.3206,82.4275
0.3694,0.5571,0.2498,48.5344,20.6183,84.7634
0.3816,0.5657,0.2451,49.6412,21.0305,87.0916
0.4021,0.5515,0.2275,50.7557,21.7023,89.8397
0.4216,0.5547,0.2258,51.6718,22.4809,91.8702
0.4407,0.5552,0.2217,52.7481,23.6031,93.6412
0.4639,0.5552,0.2222,53.6718,24.9924,95.6489
0.4749,0.5605,0.2119,54.3511,26.9695,96.8779
0.4946,0.5598,0.2087,55.1985,29.4886,98.1221
0.5,0.5627,0.2019,55.6412,31.3282,99.2061
0.5127,0.5654,0.2124,56.4427,34.3511,99.8321
0.5271,0.5674,0.2134,57.0229,36.4733,100.4885
0.5361,0.5593,0.2034,57.7328,38.3817,100.9008
0.5525,0.5613,0.2109,58.1985,40.3053,100.2748
0.5457,0.5632,0.2073,58.5573,42.1298,100.3893
0.554,0.5667,0.2187,59.1298,43.9008,100.374
0.5642,0.5693,0.2117,59.6412,45.3511,99.5496
0.5647,0.5681,0.2283,60.1985,46.4504,99.1756
0.5735,0.5681,0.2288,60.8168,47.8397,98.6412
0.5837,0.5759,0.2468,61.6947,48.7557,98.3664
0.5911,0.5771,0.2444,62.2137,49.4351,97.7328
0.5923,0.5818,0.2544,62.5191,49.8092,97.3664
0.594,0.573,0.2568,62.8855,50.2824,97.2748
0.6003,0.5752,0.2537,63.1145,50.5191,96.6336
0.6077,0.5845,0.2556,63.2443,50.5725,96.1603
0.6021,0.5901,0.2646,63.2672,50.5573,95.9618
0.6067,0.5898,0.2612,63.3435,50.2672,95.8779
0.6147,0.5806,0.26,63.4122,49.5191,95.0992
0.6125,0.5857,0.2712,63.229,48.6183,94.5191
0.623,0.5859,0.2727,63.229,47.9237,94.4046
0.6194,0.5852,0.2729,63.0763,46.8855,94.0611
0.6294,0.5798,0.2805,63.0534,45.8702,93.4809
0.6331,0.5686,0.2734,63.0916,44.4275,92.7176
0.6299,0.572,0.2756,63.145,43.4198,92.3817
0.6299,0.5776,0.2737,63.0229,42.2443,91.916
0.6411,0.5774,0.2766,63.1603,41.145,91.3359
0.6472,0.5757,0.2776,63.1298,40.1679,91.0458
0.6426,0.5774,0.2759,63.1679,39.3282,90.1374
0.6484,0.5764,0.2786,63.2901,38.4198,89.6336
0.6548,0.5732,0.2737,63.2443,37.229,89.4275
0.6641,0.5742,0.2805,63.2901,36.1985,89.1756
0.6719,0.5703,0.2751,63.4122,34.5649,89.0382
0.6899,0.5713,0.2705,63.3588,32.6031,89.1374
0.697,0.5571,0.2705,63.3664,30.8321,89.5191
0.7126,0.5566,0.2715,63.1298,28.5649,89.5802
0.7285,0.5525,0.2686,63.0992,26.2061,90.2824
0.7451,0.5474,0.2698,62.9618,23.9237,90.8092
0.769,0.5435,0.2695,62.8321,21.0687,90.9237
0.7708,0.5415,0.2632,62.5115,18.7481,92.0153
0.7896,0.5344,0.2698,62.2366,16.2443,92.2748
0.8044,0.5356,0.2651,61.9695,13.9771,92.4657
0.822,0.5388,0.2737,61.6947,11.626,92.626
0.8425,0.5352,0.2712,61.0687,9.1679,92.5038
0.8643,0.5396,0.2664,60.9008,6.7252,91.8626
0.8838,0.5334,0.2803,60.4351,4.0382,91.374
0.8899,0.5242,0.2834,59.9237,1.6794,90.5573
0.9028,0.5347,0.2864,59.4885,-0.7634,89.2595
0.9224,0.5342,0.2927,59.084,-3.084,88.0916
0.9351,0.5378,0.3059,58.626,-5.4809,86.6947
0.9419,0.5403,0.3188,58.4885,-8.1985,85.1221
0.9563,0.5503,0.3308,58.5191,-10.5649,83.2748
0.969,0.5569,0.342,58.5649,-13.229,81.3206
0.9871,0.5767,0.3555,58.9008,-15.5954,79.229
0.998,0.582,0.3735,59.7405,-18.6336,76.7557
1.0051,0.5945,0.3879,60.8779,-20.7786,74.6718
1.0195,0.6184,0.4077,62.0076,-22.6794,72.5267
1.03,0.6294,0.4238,63.4351,-24.3053,69.9618
1.0442,0.6558,0.436,65.2366,-25.2748,68.0763
1.0413,0.6655,0.4421,67.1374,-25.9847,65.771
1.0518,0.6858,0.4368,69.313,-25.8015,63.6489
1.0579,0.7007,0.4419,71.6947,-24.8473,61.5954
1.0632,0.7173,0.4485,74.1603,-23.4427,59.5344
1.073,0.7407,0.4492,76.4657,-21.4733,57.7176
1.0664,0.7427,0.4248,78.771,-18.5267,56.9389
1.0706,0.7451,0.4111,80.8931,-14.8092,56.5267
1.0872,0.7439,0.3838,82.6794,-10.0992,57.1679
1.0876,0.7444,0.364,83.8855,-4.8931,58.7939
1.0894,0.7153,0.3496,84.6641,0.4962,60.9771
1.0789,0.6909,0.3469,84.8244,5.0229,63.0763
1.0715,0.6626,0.3428,84.542,8.6031,64.8626
1.0725,0.6467,0.3262,84.4885,11.6718,67.0763
1.0854,0.644,0.3103,84.4733,15.4427,69.8321
1.1125,0.6458,0.2932,84.9466,20.2443,73.8626
1.1284,0.6404,0.2878,85.1374,25.1221,78.6107
1.1294,0.6296,0.2983,85.4962,28.9924,83.1069
1.0759,0.6128,0.3782,84.6489,27.8855,87.1603
1.0818,0.5884,0.3721,83.3282,27.2748,90.6336
1.113,0.5735,0.334,81.6412,28.8702,94.7557
1.1558,0.5647,0.3162,79.4733,32.3206,99.5496
1.1865,0.5579,0.259,76.9542,37.0382,105.2824
1.2153,0.5605,0.2424,73.8092,42.8244,111.1527
1.2263,0.5566,0.231,70.3969,47.1527,117.0
1.2634,0.5459,0.2207,66.2748,50.9466,122.5878
1.2915,0.533,0.1953,61.4809,55.0458,128.7634
1.3193,0.5095,0.2083,56.1679,58.7939,134.5191
1.3589,0.4812,0.1821,50.4733,61.5878,139.6107
1.3877,0.4482,0.1726,44.4809,64.0992,144.5267
1.4241,0.4199,0.1777,38.3053,66.2595,148.6947
1.458,0.3882,0.1797,32.1069,67.626,151.8092
1.4871,0.3552,0.2068,25.8244,68.6031,154.3282
1.5259,0.3325,0.2205,19.4733,68.6107,156.313
1.5413,0.3162,0.2273,13.6489,68.229,156.8092
1.584,0.2874,0.2512,7.687,67.6947,156.2901
1.6133,0.2561,0.2817,2.2595,67.1298,155.1527
1.6414,0.2234,0.3083,-2.9924,66.8702,152.9847
1.6677,0.1936,0.3374,-7.7099,66.8626,150.1298
1.6987,0.165,0.3647,-12.0916,67.3282,146.6412
1.7134,0.1445,0.3916,-15.8015,67.6107,142.5496
1.729,0.103,0.4336,-19.0305,68.1756,137.8779
1.7415,0.0886,0.4358,-21.5344,68.855,132.6794
1.7407,0.0603,0.4661,-23.2443,69.6489,127.2137
1.7407,0.0334,0.4946,-24.2366,70.4275,121.2137
1.7417,0.0056,0.5203,-24.4809,71.0153,114.7863
1.7388,-0.0293,0.5513,-23.9313,71.3817,108.7023
1.7312,-0.0479,0.5801,-22.7252,71.7863,102.4962
1.7178,-0.0637,0.5962,-21.0305,71.9695,95.7099
1.7026,-0.0881,0.6375,-18.4046,72.3664,88.8473
1.6936,-0.0947,0.6448,-15.7252,72.8473,82.7481
1.6626,-0.1125,0.677,-11.3206,73.4504,74.1298
1.6475,-0.1375,0.689,-7.4275,74.5343,67.4046
1.6169,-0.1609,0.7041,-3.3588,76.0153,60.7176
1.6128,-0.1638,0.7029,1.313,77.3664,54.0305
1.5789,-0.1821,0.7136,6.2977,78.9008,47.5267
1.5679,-0.1848,0.718,11.4962,80.6489,41.4504
1.5264,-0.1943,0.7207,17.2214,82.374,35.4809
1.4893,-0.2078,0.7283,23.6565,84.0458,29.5191
1.4524,-0.2168,0.7375,29.5649,85.7557,24.1374
1.418,-0.219,0.7439,36.0687,87.5267,19.2672
1.3789,-0.2122,0.7432,42.5267,88.8855,14.7328
1.3533,-0.2202,0.7446,48.7939,90.0916,11.0153
1.3154,-0.2109,0.7554,55.8321,91.2595,7.0382
1.2739,-0.2104,0.7546,62.2901,91.9924,3.7176
1.2322,-0.2083,0.7561,68.4198,92.3969,1.3817
1.188,-0.2109,0.7695,74.1679,92.3969,-0.9237
1.1467,-0.2046,0.7734,79.8473,92.1221,-2.9389
1.1057,-0.2061,0.7747,85.1298,91.1374,-4.2672
1.0674,-0.2048,0.7766,90.0,90.2901,-4.8168
1.03,-0.2048,0.7854,94.6947,89.1603,-5.4733
1.0029,-0.2046,0.7905,99.0687,87.5343,-5.4733
0.9688,-0.1946,0.7812,103.1756,85.3664,-4.8168
0.9314,-0.1863,0.7957,106.6641,82.8092,-4.145
0.9026,-0.1843,0.7908,110.6794,80.0458,-3.1832
0.8687,-0.1697,0.7893,113.9924,76.8092,-1.6107
0.8384,-0.1719,0.7952,117.3206,73.3282,-0.0687
0.8137,-0.158,0.8015,120.8397,69.6947,1.8092
0.7915,-0.156,0.7983,122.9771,66.4504,3.8015
0.7737,-0.1497,0.7979,126.1069,62.8626,5.9466
0.7571,-0.1455,0.7917,128.7405,59.229,8.2061
0.738,-0.1392,0.7832,131.458,55.7634,11.0076
0.7246,-0.1418,0.7783,134.1298,52.2061,13.9084
0.7134,-0.127,0.7839,136.7557,48.8702,16.7023
0.7039,-0.1306,0.7664,139.374,45.9084,20.5573
0.6948,-0.1248,0.7524,141.6794,43.1756,24.0
0.6907,-0.1252,0.7478,143.9618,40.4656,27.4733
0.687,-0.1208,0.7397,146.0,38.1221,30.8321
0.6863,-0.1294,0.7388,148.4657,35.8015,34.9084
0.6831,-0.1282,0.7275,150.6336,34.2519,38.8931
0.6797,-0.1301,0.7136,152.8855,32.6031,43.0763
0.6702,-0.1292,0.6968,155.0916,31.5496,47.2214
0.6694,-0.1323,0.6953,157.1603,30.7557,51.2595
0.6743,-0.1367,0.6851,159.0,30.7328,55.8092
0.667,-0.1421,0.6765,160.7405,30.2366,60.313
0.6558,-0.1484,0.6758,162.9542,29.5114,63.6947
0.6704,-0.1555,0.6682,165.3282,29.2901,68.4046
0.6648,-0.1665,0.6521,167.9084,29.7863,72.7481
0.6619,-0.1736,0.6497,170.229,30.4275,77.2214
0.6609,-0.198,0.6387,172.2977,31.0229,81.2366
0.656,-0.197,0.6199,174.2519,32.1374,85.4962
0.6567,-0.2112,0.6147,176.1527,33.0687,89.5573
0.6621,-0.2112,0.5896,178.0916,34.1069,93.313
0.6538,-0.2263,0.5906,180.0305,35.458,97.3511
0.6562,-0.2231,0.5864,181.771,36.4351,101.1069
0.6592,-0.2375,0.5757,184.0458,37.3817,105.1603
0.6636,-0.249,0.5605,186.6794,38.4504,110.4809
0.6711,-0.2605,0.5486,189.0916,39.1679,114.5115
0.6763,-0.2798,0.542,191.7099,40.4122,118.6641
0.6794,-0.2937,0.5332,193.9618,41.0458,122.8015
0.6853,-0.304,0.5195,196.3817,42.0305,126.7252
0.6936,-0.3135,0.5088,198.4122,43.0,130.4046
0.7021,-0.3257,0.4985,200.7481,43.7252,133.8779
0.7061,-0.3335,0.4797,202.7863,44.1985,137.374
0.7053,-0.3433,0.4758,204.9847,44.542,140.8321
0.717,-0.354,0.4751,206.6488,44.9389,144.1603
0.7175,-0.3577,0.4712,208.6794,45.2214,147.084
0.7258,-0.3562,0.4558,210.626,45.1374,149.9466
0.7292,-0.365,0.4563,212.6031,45.2748,152.458
0.7339,-0.3677,0.4419,214.4504,45.0916,155.1145
0.7363,-0.3818,0.4463,216.3206,44.4046,157.3588
0.74,-0.3923,0.4341,218.0916,43.8015,159.6641
0.749,-0.3999,0.4255,219.6488,42.8779,161.6183
0.7542,-0.4143,0.4224,221.3512,41.6794,163.6565
0.7585,-0.416,0.4268,222.9695,40.3588,165.2824
0.7686,-0.4192,0.4114,224.5496,38.2977,166.9771
0.7729,-0.4285,0.4031,226.0687,36.2366,168.7099
0.7703,-0.4351,0.3894,227.687,33.9237,169.916
0.7847,-0.4395,0.3887,229.2519,31.8168,171.0763
0.8,-0.4497,0.3789,230.7634,28.9924,171.9618
0.8171,-0.4512,0.365,232.2519,26.3435,172.7939
0.8313,-0.4575,0.3596,233.8855,23.5954,173.5343
0.8403,-0.4651,0.3413,235.3359,21.1069,174.2519
0.8591,-0.4602,0.3313,236.5649,18.8244,174.6183
0.8723,-0.4609,0.3176,237.8855,16.5038,174.7176
0.8909,-0.4683,0.3057,239.3588,14.4198,174.7786
0.9219,-0.4641,0.2761,240.374,12.9389,175.0763
0.9448,-0.4692,0.2573,241.4427,11.5038,174.687
0.9753,-0.4717,0.229,242.3664,10.5344,174.3053
1.0029,-0.4707,0.2075,243.2137,10.1908,174.0382
1.0403,-0.4685,0.1973,244.0611,9.687,172.9008
1.0432,-0.4673,0.1941,244.5878,9.9389,171.7863
1.0674,-0.4629,0.1702,245.1756,10.3893,170.6641
1.0889,-0.4592,0.1575,245.771,11.1756,169.374
1.1035,-0.4517,0.1318,246.0992,11.9618,167.5573
1.1311,-0.4487,0.1335,246.3053,13.0153,165.5343
1.1431,-0.4438,0.1196,246.5038,14.2214,163.2061
1.1582,-0.4375,0.1101,246.4733,15.542,160.7328
1.1746,-0.428,0.0994,246.3969,16.6107,158.0076
1.1821,-0.4229,0.0957,246.1221,17.8931,155.2595
1.1848,-0.4163,0.0854,245.5114,19.1221,151.6107
1.186,-0.4175,0.0906,245.0076,20.4046,148.2214
1.1921,-0.4043,0.0757,244.0458,21.7252,144.9618
1.2053,-0.3931,0.083,243.3359,23.1756,141.6336
1.2053,-0.3862,0.0715,242.5496,24.2824,137.9695
1.2112,-0.3765,0.0762,241.3817,25.2366,134.6565
1.209,-0.3745,0.0764,240.2977,26.0534,131.5114
1.2107,-0.3689,0.0813,239.084,26.9237,128.1756
1.2007,-0.365,0.0789,237.8702,27.5114,124.6641
1.1987,-0.3604,0.084,236.3282,27.5954,121.3588
1.1816,-0.356,0.0994,234.626,27.8702,117.5878
1.1777,-0.354,0.1028,233.2672,27.8779,114.5343
1.1689,-0.3564,0.103,231.9924,27.458,111.7023
1.1538,-0.3484,0.1206,230.5725,26.7252,108.4122
1.1433,-0.354,0.1338,229.2061,25.9695,105.8092
1.1252,-0.3528,0.135,228.0076,24.9542,103.6107
1.1113,-0.342,0.1533,227.1145,23.7481,100.8855
1.0977,-0.3442,0.1746,226.2519,22.1985,98.9542
1.0874,-0.3447,0.1736,225.7023,20.4427,97.0229
1.0671,-0.3486,0.1956,225.3588,18.6183,95.2061
1.0522,-0.3555,0.2102,224.9542,16.0763,93.2977
1.0339,-0.3547,0.2192,224.9313,13.4275,91.7405
1.0208,-0.3545,0.2297,225.0382,10.7863,90.3435
1.0125,-0.3579,0.2317,225.2672,7.6031,88.9237
1.0015,-0.3594,0.2417,225.6641,4.4122,87.5878
0.9854,-0.366,0.2578,226.3969,1.229,86.2519
0.9766,-0.365,0.2644,227.3206,-2.0916,85.0382
0.9656,-0.3694,0.2756,228.3817,-5.6565,83.9008
0.9553,-0.3726,0.2896,229.5343,-9.2061,82.9008
0.9539,-0.3726,0.2834,230.7863,-13.3282,82.1298
0.9451,-0.3794,0.291,232.2366,-17.229,81.0305
0.9426,-0.3752,0.2961,233.7481,-21.0687,80.3588
0.9412,-0.3828,0.3059,235.6107,-26.2519,79.374
0.9417,-0.3879,0.3018,237.7634,-31.3511,78.4046
0.9434,-0.3943,0.2849,239.4657,-35.6031,78.0763
0.9414,-0.3894,0.2903,241.1603,-39.4656,77.3206
0.9441,-0.3943,0.2886,243.0992,-43.5191,76.6336
0.9602,-0.3992,0.2761,244.7863,-47.2061,76.2061
0.9712,-0.3923,0.2664,246.5878,-50.5344,75.9847
0.9844,-0.3994,0.2412,248.3588,-53.1756,75.3359
0.9978,-0.3965,0.2246,250.0763,-55.9313,75.0534
1.0134,-0.4043,0.1982,250.1298,-58.0382,74.6794
1.0349,-0.3979,0.1821,250.1298,-59.7786,74.2748
1.0542,-0.3955,0.147,250.1298,-60.6107,73.9542
1.0615,-0.3975,0.1338,250.1298,-61.1145,73.4657
1.0754,-0.3862,0.1204,250.1298,-60.8168,72.8779
1.0955,-0.386,0.0999,250.1298,-59.9924,72.3282
1.1184,-0.3765,0.0774,250.1298,-58.4275,71.7023
1.1326,-0.3699,0.0503,250.1298,-56.5496,70.9695
1.1531,-0.3606,0.0352,250.1298,-54.2366,70.2519
1.1646,-0.3503,0.0107,250.1298,-51.4122,69.7023
1.1787,-0.3494,0.0068,250.1298,-48.0687,69.0382
1.1921,-0.3428,-0.0137,250.1298,-44.4885,68.6336
1.2039,-0.3345,-0.0308,250.1298,-40.4962,68.2443
1.2104,-0.3291,-0.0476,250.1298,-36.2672,67.7786
1.2283,-0.3186,-0.0549,250.1298,-31.8779,67.5725
1.2351,-0.3198,-0.0742,250.1298,-27.6183,67.5267
1.248,-0.3108,-0.0896,250.1298,-23.1832,67.1145
1.2471,-0.3,-0.0981,250.1298,-18.9466,67.084
1.2512,-0.3032,-0.1135,250.1298,-14.3359,67.3206
1.2646,-0.3025,-0.1289,250.1298,-10.4885,67.1908
1.2593,-0.2908,-0.1338,250.1298,-6.313,66.7634
1.2661,-0.2852,-0.1453,250.1298,-2.5267,66.542
1.2605,-0.282,-0.1455,250.1298,1.8473,65.8702
1.2566,-0.2766,-0.1553,250.1298,5.2061,65.2672
1.2578,-0.2769,-0.1514,250.1298,7.7099,64.5954
1.2458,-0.2649,-0.1606,250.1298,9.8244,63.7557
1.2493,-0.2561,-0.1772,250.1298,11.8779,62.7176
1.2458,-0.259,-0.1753,250.1298,13.3664,61.7176
1.2417,-0.2434,-0.177,250.1298,14.6107,60.3282
1.2346,-0.2427,-0.1785,250.1298,15.2443,59.2061
1.2346,-0.2327,-0.178,250.1298,15.6947,57.771
1.231,-0.2258,-0.1697,250.1298,16.0611,56.2824
1.2268,-0.2153,-0.1777,250.1298,15.9466,54.6565
1.2261,-0.208,-0.1816,249.5878,15.4809,52.8244
1.2175,-0.1973,-0.1809,247.313,14.8397,51.0382
1.2229,-0.1956,-0.1921,245.1298,13.9542,49.2137
1.229,-0.1829,-0.1987,242.4351,12.6718,46.916
1.2136,-0.1743,-0.199,239.9008,11.4733,44.7176
1.2202,-0.1587,-0.1997,237.0534,9.9847,42.5344
1.2141,-0.1465,-0.2107,234.1145,8.2901,40.0534
1.21,-0.135,-0.2068,231.2977,6.4122,37.5878
1.2036,-0.1267,-0.2151,227.9542,4.5344,35.2366
1.2085,-0.1116,-0.2239,224.8321,3.0763,32.9618
1.2109,-0.1011,-0.2351,221.5267,1.6565,30.5954
1.2073,-0.0957,-0.2322,218.542,0.2443,28.5191
1.2107,-0.0796,-0.2393,214.9924,-0.8626,26.0382
1.2124,-0.0686,-0.248,211.4962,-1.771,23.6336
1.219,-0.0549,-0.248,207.8702,-2.7557,21.6718
1.2153,-0.0378,-0.2544,204.1069,-3.1527,19.7176
1.2227,-0.0237,-0.2639,200.3664,-3.4046,17.9008
1.2209,-0.0127,-0.2686,196.5267,-3.374,16.0611
1.2219,-0.0029,-0.2671,192.7099,-3.4275,14.4122
1.2219,-0.0032,-0.2686,188.9313,-3.0763,13.0763
1.2231,0.0034,-0.2725,184.7252,-2.8015,11.4427
1.2258,0.0127,-0.2771,180.9008,-2.3206,10.2366
1.2234,0.0203,-0.2734,176.8855,-1.4351,9.2366
1.229,0.0227,-0.2778,173.1832,-0.3435,8.1145
1.2244,0.0293,-0.2791,169.3512,0.5649,7.4733
1.2214,0.0291,-0.2773,165.5802,2.1527,6.542
1.2153,0.033,-0.2727,161.7328,4.2595,5.9847
1.2183,0.0461,-0.2676,158.4275,6.0305,5.5954
1.2144,0.0444,-0.2615,154.9466,8.0305,5.1908
1.208,0.0417,-0.2554,151.4046,9.7634,4.7023
1.2063,0.0347,-0.2532,148.3206,11.6641,4.084
1.1973,0.0359,-0.2461,145.2977,13.5725,4.3588
1.1978,0.0366,-0.2329,142.5802,15.229,4.229
1.1921,0.0349,-0.23,139.9084,16.8168,4.2214
1.1982,0.0349,-0.2104,137.3969,18.1527,4.4885
1.188,0.0361,-0.2083,135.1908,19.3206,4.4962
1.188,0.0342,-0.2012,133.0,20.1374,4.5802
1.1858,0.0327,-0.2109,131.2443,20.5954,4.9618
1.1768,0.0376,-0.1931,129.3206,20.9542,4.8473
1.1726,0.0312,-0.1907,127.6947,20.8855,4.8855
1.1685,0.0283,-0.1863,126.0305,20.8397,4.8473
1.1729,0.0288,-0.1765,124.3435,20.4046,4.916
1.1665,0.0383,-0.1707,123.5802,19.687,4.8092
1.1609,0.0425,-0.1628,121.374,18.8015,4.5344
1.1575,0.0444,-0.1672,120.9695,17.9695,4.3435
1.1514,0.051,-0.158,119.6107,16.8855,4.1221
1.1484,0.0496,-0.1545,118.1756,15.7328,3.9695
1.145,0.0527,-0.1448,116.0992,13.8397,3.5038
1.1401,0.0562,-0.1589,115.1603,11.7405,3.3817
1.1389,0.0532,-0.1504,113.5878,9.8779,3.5267
1.1379,0.0513,-0.1519,112.3435,7.0992,3.3893
1.1377,0.0574,-0.1438,110.7481,4.5115,3.313
1.1265,0.0515,-0.1602,109.2366,1.5878,3.3664
1.1218,0.0461,-0.1514,108.0076,-1.5802,3.8321
1.1233,0.0413,-0.1472,106.4733,-4.687,4.1756
1.1206,0.0308,-0.1716,104.7863,-8.1679,4.4351
1.1169,0.0247,-0.1758,103.1298,-11.4122,4.9847
1.1167,0.0271,-0.1833,101.6183,-14.3282,5.3893
1.1096,0.019,-0.1914,99.7481,-17.4809,6.0611
1.1199,0.0168,-0.208,97.8855,-20.4198,6.7939
1.1299,0.0044,-0.2207,95.9084,-23.0305,7.542
1.1284,0.0078,-0.2266,93.6947,-25.4427,8.2595
1.1355,0.0081,-0.2346,91.7176,-27.5267,9.5573
1.1396,0.0059,-0.2495,89.3053,-29.9008,10.5115
1.1489,0.0142,-0.2617,87.0458,-31.5267,11.5115
1.1589,0.0129,-0.2676,84.5115,-33.1603,12.7786
1.1653,0.0142,-0.2769,81.9008,-34.4198,14.2214
1.1675,0.0129,-0.281,78.9313,-35.7786,15.5115
1.178,0.0139,-0.2944,76.0458,-36.8244,16.8092
1.1924,0.0161,-0.3049,72.9008,-37.9084,18.5496
1.2163,0.0159,-0.3169,69.4657,-38.7863,20.1069
1.2317,0.0181,-0.3333,66.374,-39.4427,21.2137
1.2385,0.0144,-0.3357,62.7557,-39.5496,22.7328
1.2671,0.0125,-0.353,58.9389,-39.4885,23.9695
1.2656,0.011,-0.3596,55.2672,-39.0992,25.1908
1.2883,0.0146,-0.3745,51.4351,-37.8397,26.0305
1.3027,0.0107,-0.3672,47.5802,-36.771,26.8092
1.321,0.0117,-0.3865,43.7481,-35.1298,27.5649
1.3347,0.0044,-0.3862,39.7939,-33.1221,27.8626
1.3521,-0.0017,-0.3958,35.9237,-30.3893,27.6794
1.3633,-0.0039,-0.405,32.3511,-28.0916,27.2901
1.376,-0.0139,-0.4028,28.6794,-25.229,26.5573
1.3784,-0.021,-0.3984,25.4656,-22.5496,25.4351
1.3872,-0.0276,-0.3831,22.0153,-19.7099,23.9847
1.3875,-0.0315,-0.3855,18.8397,-17.0916,22.687
1.3948,-0.05,-0.3718,15.9847,-14.4427,21.0153
1.3948,-0.0586,-0.3711,13.374,-12.0458,19.0
1.396,-0.0728,-0.3608,11.084,-9.4122,16.9008
1.3997,-0.0774,-0.3557,8.7863,-6.9618,14.5344
1.3926,-0.0906,-0.3564,7.0916,-4.5344,12.2748
1.3926,-0.0962,-0.3354,5.5038,-2.3817,9.8779
1.3887,-0.0996,-0.3381,4.4198,-0.0382,7.3435
1.3896,-0.1084,-0.3203,3.3893,1.9618,5.1832
1.3752,-0.1165,-0.3181,2.5878,4.0305,2.687
1.3613,-0.116,-0.3115,2.4733,6.2214,0.6183
1.3528,-0.1255,-0.2988,2.542,8.1527,-1.4733
1.3367,-0.1287,-0.2983,2.916,9.6412,-3.6641
1.3279,-0.1416,-0.2971,3.6794,11.8168,-5.8855
1.312,-0.1418,-0.2871,4.4504,13.6641,-7.8168
1.2886,-0.1492,-0.2856,5.6031,15.2977,-9.5496
1.2786,-0.1543,-0.2925,6.8015,17.145,-11.1069
1.2629,-0.1621,-0.2827,8.3282,18.7405,-12.2443
1.2502,-0.1663,-0.2888,9.8168,20.7023,-13.4809
1.2432,-0.1638,-0.2869,11.3435,22.4733,-14.4809
1.22,-0.1736,-0.2744,13.2137,23.8779,-15.2595
1.2004,-0.1719,-0.2756,14.9084,25.3893,-15.626
1.1885,-0.1709,-0.2759,16.7863,26.5954,-16.0992
1.1702,-0.1692,-0.2708,18.687,27.855,-16.2366
1.1582,-0.1638,-0.272,20.6947,29.0153,-16.1832
1.144,-0.165,-0.2747,22.5802,29.855,-16.1145
1.1296,-0.1621,-0.2708,24.5344,30.7634,-15.7481
1.1189,-0.165,-0.2729,26.3511,31.4427,-14.9618
1.1084,-0.1592,-0.269,28.0382,31.8702,-14.5267
1.0908,-0.1545,-0.2778,29.6412,32.1908,-13.6947
1.0847,-0.1567,-0.2859,31.1069,32.0534,-12.7557
1.0679,-0.1526,-0.2783,32.4656,32.0305,-11.5267
1.0537,-0.1421,-0.2876,33.626,32.1908,-10.4885
1.051,-0.1321,-0.282,34.6565,31.7863,-9.3893
1.0332,-0.1362,-0.2861,35.3359,31.313,-8.1679
1.0337,-0.1343,-0.2874,35.9771,30.8626,-6.6718
1.0264,-0.1287,-0.2957,36.3969,29.9008,-5.4809
1.012,-0.1086,-0.2817,36.5496,28.5802,-3.8244
1.0039,-0.1072,-0.2888,36.458,27.4046,-2.6336
0.9976,-0.1021,-0.283,36.5725,25.8473,-1.4427
0.9922,-0.0999,-0.2937,36.2824,24.0305,-0.0916
0.9856,-0.0872,-0.2849,36.0916,21.9924,0.8931
0.9717,-0.0879,-0.28,35.6641,19.7863,1.916
0.9766,-0.085,-0.2766,35.1374,17.7176,3.145
0.9714,-0.082,-0.2834,34.8702,15.4962,3.626
0.9568,-0.0789,-0.2834,34.0992,13.0763,4.2061
0.9617,-0.0833,-0.2888,33.7786,10.8092,4.7405
0.9587,-0.075,-0.2827,33.0382,8.2901,5.4656
0.9526,-0.0723,-0.2917,32.2595,6.0229,5.8244
0.9502,-0.0759,-0.2866,31.7099,3.5115,6.0916
0.9583,-0.0776,-0.2983,31.1985,0.771,6.1069
0.9553,-0.0676,-0.2915,30.5114,-1.8321,6.4962
0.9426,-0.0669,-0.2964,29.9389,-4.3893,6.4504
0.9619,-0.0627,-0.3137,29.3588,-7.1908,6.7252
0.9556,-0.061,-0.3159,28.7557,-9.626,6.5878
0.9595,-0.0552,-0.3132,28.3664,-12.2061,6.4351
0.9624,-0.0583,-0.3254,27.6947,-14.7328,6.3588
0.9636,-0.0562,-0.3318,27.0763,-16.916,5.9771
0.9688,-0.0486,-0.3354,26.4275,-19.2672,5.313
0.9722,-0.05,-0.3376,25.5038,-21.5344,5.1069
0.9729,-0.0454,-0.3474,24.7557,-23.7634,4.3969
0.9761,-0.0398,-0.3525,23.9771,-25.8015,3.6641
0.9812,-0.0315,-0.3508,22.9084,-27.5038,3.0687
0.9802,-0.0273,-0.3584,22.0,-29.2824,2.3588
0.9875,-0.0288,-0.3586,20.8931,-30.7023,1.3206
0.9934,-0.0212,-0.3557,19.9084,-32.0305,0.5573
0.9922,-0.0107,-0.3689,18.6947,-33.1832,-0.3511
0.9927,-0.0032,-0.3647,17.6641,-33.9771,-1.5191
0.9924,0.0042,-0.377,15.9389,-34.5038,-2.8931
0.9968,0.0071,-0.3821,14.6107,-34.6794,-3.8855
1.0,0.0085,-0.3818,13.3282,-34.7252,-4.8397
0.9958,0.0154,-0.3884,11.9389,-34.2748,-6.1908
0.9993,0.0134,-0.3835,10.542,-33.6565,-7.1298
1.002,0.0137,-0.3945,9.2748,-32.8244,-7.9542
0.9902,0.0166,-0.396,7.9695,-32.1145,-9.0763
0.9932,0.0208,-0.3826,6.5191,-30.9313,-10.1832
0.9937,0.0203,-0.3936,5.4809,-29.9313,-10.8779
0.9883,0.0217,-0.3872,4.3282,-28.8473,-12.0763
0.9841,0.0229,-0.3828,3.0534,-27.9924,-12.9008
0.9778,0.0249,-0.3828,2.313,-26.7557,-13.5267
0.9778,0.0281,-0.384,1.2366,-25.8015,-14.0458
0.9709,0.0278,-0.3845,0.2977,-24.855,-14.5802
0.9651,0.0327,-0.3713,-0.4046,-23.7328,-14.8473
0.9607,0.0298,-0.3774,-1.2901,-22.5191,-14.9237
0.9553,0.0359,-0.3606,-1.855,-21.7252,-14.9618
0.946,0.0393,-0.355,-2.771,-20.8702,-14.7252
0.9355,0.0359,-0.3601,-3.4275,-20.2443,-14.6412
0.9294,0.0464,-0.3506,-3.9389,-19.3435,-14.3206
0.9224,0.0422,-0.344,-4.5267,-18.4427,-14.1145
0.9258,0.0454,-0.3411,-5.2137,-17.8015,-13.6031
0.916,0.0522,-0.334,-5.9237,-16.8702,-13.1069
0.9038,0.0605,-0.3362,-6.145,-16.0229,-12.6031
0.8999,0.0645,-0.3335,-6.7405,-15.0992,-11.9771
0.8977,0.0632,-0.3225,-7.4733,-14.2748,-11.4809
0.8853,0.0676,-0.3279,-7.8473,-13.2366,-10.4427
0.884,0.073,-0.3169,-8.458,-12.1908,-9.8473
0.8811,0.0762,-0.3071,-8.7939,-11.1527,-9.1756
0.8774,0.074,-0.3118,-9.6336,-9.9389,-8.4733
0.8738,0.0767,-0.3088,-10.2672,-9.1832,-7.4198
0.8689,0.0872,-0.301,-10.855,-8.5496,-6.5496
0.8704,0.0928,-0.293,-11.4809,-7.8015,-5.5878
0.8787,0.0898,-0.2988,-12.1374,-6.9618,-4.5267
0.8723,0.0994,-0.3003,-12.7328,-6.2137,-3.7328
0.8757,0.1035,-0.2976,-13.3588,-5.3817,-2.6947
0.8718,0.113,-0.2996,-14.2214,-4.4809,-1.7481
0.8728,0.1165,-0.2893,-14.9008,-3.458,-1.2366
0.8726,0.1155,-0.2939,-15.6489,-2.4962,-0.855
0.8625,0.1221,-0.2869,-16.374,-1.2672,-0.3282
0.8733,0.1218,-0.2937,-17.1908,0.0076,0.0382
0.8704,0.1309,-0.2878,-18.1985,1.374,0.3206
0.8652,0.1289,-0.2847,-19.5114,2.3893,0.2977
0.8728,0.1353,-0.2773,-20.5573,3.5115,0.313
0.8728,0.1318,-0.2932,-21.9313,4.5954,0.5496
0.8718,0.1301,-0.2844,-23.3511,5.2977,0.8397
0.8733,0.1387,-0.2732,-24.7099,5.8015,0.7786
0.8718,0.1316,-0.2742,-26.2214,6.0611,0.7786
0.8704,0.1372,-0.2705,-27.771,6.4427,0.9389
0.8672,0.1414,-0.2671,-29.5038,6.229,1.4427
0.8665,0.1387,-0.2607,-31.1908,6.0,1.1756
0.8723,0.1392,-0.2568,-33.1603,5.7786,1.3206
0.8667,0.145,-0.2471,-34.9389,5.2061,1.1832
0.8687,0.1423,-0.251,-36.7557,4.8092,1.1527
0.8594,0.1428,-0.2319,-39.145,4.5573,1.1374
0.8572,0.1433,-0.2244,-41.5038,4.1603,0.9924
0.8499,0.1411,-0.2212,-43.5649,3.8626,0.9771
0.864,0.135,-0.2056,-45.8321,3.4733,0.3435
0.8506,0.1326,-0.1919,-47.8244,2.3588,-0.1145
0.8589,0.1282,-0.176,-49.3435,0.5038,-0.7557
0.8677,0.1267,-0.1829,-50.9847,-0.6947,-1.0916
0.8596,0.1299,-0.1626,-51.9618,-1.2137,-0.9542
0.8625,0.1301,-0.1504,-53.3893,-1.6947,-1.1679
0.8589,0.1306,-0.1477,-55.0153,-2.0916,-1.4504
0.8579,0.1265,-0.1426,-57.145,-1.7634,-1.2901
0.8599,0.1321,-0.1375,-59.4885,-0.9542,-1.2443
0.8591,0.1279,-0.1418,-61.3817,-0.0153,-0.771
0.8582,0.1443,-0.1301,-63.4656,1.3969,-0.0076
0.8535,0.147,-0.1365,-65.3435,2.374,0.8931
0.8604,0.1462,-0.1357,-66.7023,3.1832,2.2901
0.8618,0.1523,-0.1267,-67.8855,3.7786,3.5954
0.8555,0.1482,-0.1177,-68.4809,4.3588,5.1221
0.8599,0.1436,-0.1155,-68.9084,4.9237,6.9389
0.8601,0.1362,-0.1084,-69.2977,5.313,9.1374
0.8552,0.1255,-0.0906,-69.2595,5.8931,10.7405
0.8623,0.1204,-0.0823,-68.8473,6.3435,12.4046
0.8645,0.1025,-0.0703,-68.7023,6.916,13.5115
0.8711,0.0867,-0.0667,-68.5649,7.1221,14.771
0.8718,0.0798,-0.0525,-68.0076,7.0534,15.2595
0.8867,0.0647,-0.0334,-67.5038,6.5038,15.3511
0.9023,0.0637,-0.0317,-66.9313,5.6565,14.8779
0.9028,0.0579,-0.0286,-66.1832,4.4809,14.3588
0.9177,0.0564,-0.021,-65.4504,3.374,13.4733
0.9358,0.0608,-0.0037,-64.5343,2.0076,12.1145
0.9451,0.0637,-0.0034,-63.3435,0.4198,10.5344
0.9583,0.072,0.0029,-62.0687,-0.7099,8.6718
0.9722,0.083,0.0088,-61.0687,-1.6947,7.0458
0.9727,0.0933,0.0068,-60.0763,-2.1756,5.2366
0.9824,0.0974,0.0039,-59.084,-2.6718,3.5954
0.9973,0.095,0.0002,-58.2672,-2.9084,2.4046
0.9919,0.1045,0.0066,-57.3588,-2.8702,0.8321
1.0024,0.1101,0.0071,-56.8626,-2.5573,-0.084
1.002,0.1165,-0.0032,-56.4885,-1.9695,-0.8015
1.0073,0.1123,-0.0037,-56.0382,-1.1374,-1.687
1.0039,0.1187,-0.0042,-55.7328,-0.5191,-2.4962
1.0056,0.1238,-0.0115,-55.8168,0.4275,-3.2137
1.0103,0.1226,-0.0083,-55.7939,1.6183,-3.687
1.002,0.1265,-0.0081,-55.6718,2.8168,-4.4504
1.0085,0.1311,-0.0088,-55.9313,4.1679,-4.771
1.0161,0.1311,-0.0085,-55.855,5.2366,-5.5573
1.0112,0.1387,-0.0063,-56.1527,6.7863,-5.855
1.0173,0.1384,-0.0134,-56.3282,8.3588,-6.313
