ax,ay,az,gx,gy,gz
1.4312,-0.0291,-0.2319,103.7023,-24.2977,-7.2061
1.4009,-0.0747,-0.1843,103.855,-19.6412,-9.4962
1.4233,-0.0469,-0.1917,104.2137,-15.7557,-11.8168
1.4458,-0.0254,-0.2568,105.3435,-12.2443,-13.2672
1.3679,-0.0837,-0.2068,106.0992,-13.2901,-15.8168
1.3762,-0.071,-0.2659,106.5343,-11.2901,-18.0
1.3347,-0.0654,-0.2922,107.1069,-8.2366,-19.6718
1.3381,-0.0347,-0.324,107.1756,-6.4122,-21.6336
1.3862,-0.0173,-0.364,106.9924,-3.0382,-23.0916
1.4038,-0.0083,-0.373,106.2748,-1.0763,-24.5573
1.4204,0.0029,-0.386,105.542,-1.0611,-25.5649
1.406,-0.001,-0.384,104.7863,-1.0,-26.5114
1.3892,-0.0159,-0.4014,103.6794,-1.4504,-27.8702
1.354,-0.03,-0.4236,102.8168,-1.9618,-29.1908
1.3228,-0.0415,-0.4397,101.7634,-2.2901,-30.8168
1.2859,-0.0581,-0.47,101.1145,-3.8015,-32.0916
1.2798,-0.0691,-0.4841,100.7634,-5.1069,-33.5267
1.271,-0.0996,-0.5007,100.4885,-7.2595,-35.0992
1.262,-0.1257,-0.5183,100.8779,-9.9084,-36.7023
1.2571,-0.1411,-0.53,101.4809,-12.3359,-37.9466
1.2534,-0.1543,-0.5388,102.5649,-14.9237,-39.5267
1.2358,-0.1558,-0.5396,104.1069,-17.2214,-40.8397
1.2258,-0.1572,-0.531,106.145,-19.0382,-42.0916
1.2185,-0.1567,-0.5188,108.1069,-20.7863,-43.0916
1.2322,-0.1523,-0.4949,110.374,-23.0534,-43.4809
1.2471,-0.1409,-0.4631,113.1221,-26.3359,-44.3282
1.2344,-0.1338,-0.4409,115.6565,-30.1298,-44.9008
1.2366,-0.1338,-0.3911,118.2366,-33.5191,-45.5725
1.2322,-0.124,-0.3547,120.9389,-38.7405,-46.1298
1.2441,-0.1094,-0.3276,122.374,-43.5267,-46.6031
1.2202,-0.1074,-0.3149,125.5954,-47.6031,-47.5115
1.2278,-0.0894,-0.3069,128.6107,-51.1832,-48.2443
1.2512,-0.1113,-0.3679,132.0458,-51.4504,-48.5496
1.2495,-0.103,-0.3398,135.374,-53.2061,-49.7176
1.2588,-0.0715,-0.2644,138.8321,-56.6641,-50.4962
1.2056,-0.0535,-0.2041,142.4657,-60.1069,-51.3282
1.1819,-0.0415,-0.1543,146.084,-62.771,-52.5954
1.198,-0.0408,-0.1311,149.5114,-63.7405,-54.0916
1.1616,-0.0374,-0.0867,152.9771,-64.5573,-55.9008
1.1516,-0.0354,-0.0872,156.2672,-63.4198,-57.4275
1.1597,-0.0618,-0.0864,159.5802,-60.9618,-59.1679
1.1533,-0.093,-0.1091,162.9389,-58.2519,-61.1679
1.1448,-0.1316,-0.1074,166.1069,-54.4427,-63.4122
1.1504,-0.1938,-0.2021,169.1527,-47.687,-65.626
1.092,-0.2107,-0.1013,171.5496,-41.2977,-67.7023
1.0828,-0.1902,-0.1353,174.145,-36.6947,-70.0611
1.0249,-0.2012,-0.073,176.2214,-31.6641,-72.3664
1.0222,-0.2454,-0.1116,177.2672,-26.4962,-74.1908
1.0303,-0.2148,-0.0867,178.0763,-21.6489,-75.8855
1.0107,-0.1694,-0.0103,178.7863,-20.3588,-77.6947
0.967,-0.179,0.009,179.6336,-19.7481,-79.1832
0.9812,-0.2417,-0.0925,180.4886,-15.7939,-80.229
0.9861,-0.2446,-0.1409,180.9924,-10.8321,-81.2977
0.9604,-0.2634,-0.1641,182.2061,-8.2366,-82.7176
0.9441,-0.2456,-0.1646,182.7481,-2.2519,-84.0687
0.9695,-0.2334,-0.2187,183.1374,3.6641,-85.6031
0.9922,-0.2187,-0.2222,183.2672,8.084,-87.2977
1.0322,-0.1912,-0.2437,183.1527,13.7099,-88.313
1.0381,-0.1641,-0.2144,182.5267,17.6565,-89.2824
1.0586,-0.1404,-0.2161,182.1069,19.8473,-89.7252
1.0613,-0.1292,-0.2156,181.4351,22.084,-91.0229
1.0498,-0.1362,-0.2034,180.7481,21.8779,-90.7634
1.0322,-0.125,-0.1504,180.313,20.145,-92.0076
1.0422,-0.1111,-0.1851,179.9389,17.771,-91.5496
1.0398,-0.0852,-0.1907,179.3664,14.6031,-91.6336
1.0332,-0.0647,-0.217,179.1679,11.5954,-92.5191
1.1011,-0.0225,-0.248,179.1221,10.2519,-91.3206
1.0435,0.0098,-0.2163,179.3359,7.5115,-91.8092
0.9888,0.0125,-0.2598,179.7939,4.7176,-92.7023
1.0378,0.0229,-0.3687,180.2443,3.9389,-91.9618
1.0183,0.0278,-0.3723,180.5725,3.0153,-91.6489
0.9978,0.0339,-0.3687,180.3893,2.1756,-93.0458
1.0317,0.043,-0.3862,180.5573,3.6641,-92.9695
1.0374,0.053,-0.3701,180.5343,3.3053,-92.8473
1.0281,0.0632,-0.3335,180.6107,1.1832,-91.8473
1.0313,0.0754,-0.3301,180.8168,-0.9008,-92.7099
1.0305,0.1018,-0.3188,180.6031,-2.2443,-93.5115
1.0256,0.0994,-0.3308,180.8244,-3.3511,-93.8931
1.0322,0.1069,-0.3721,181.313,-2.6489,-94.5038
1.0352,0.1006,-0.4084,181.9313,-2.0382,-94.7939
1.0,0.0801,-0.3806,182.7328,-2.4122,-94.9924
0.9675,0.0671,-0.3611,183.9466,-2.9618,-94.9771
0.9216,0.0535,-0.3545,185.313,-3.916,-95.8244
0.8962,0.0369,-0.3491,186.5878,-4.6947,-97.6718
0.8638,0.0027,-0.3496,188.313,-5.542,-97.7786
0.8477,-0.0134,-0.366,190.2061,-4.5191,-98.8779
0.8511,-0.0361,-0.387,192.1298,-1.3359,-99.5038
0.8989,-0.0535,-0.4705,194.1145,1.9695,-100.3206
0.897,-0.0698,-0.4485,196.6031,5.2061,-101.084
0.8889,-0.0959,-0.4209,199.084,8.3893,-101.3664
0.8628,-0.1169,-0.3987,201.7786,10.4504,-101.5649
0.8433,-0.1294,-0.3748,204.6183,12.0687,-101.916
0.8342,-0.1479,-0.3823,207.7176,14.771,-101.9466
0.8293,-0.1365,-0.3914,211.0153,18.2748,-101.8626
0.8271,-0.1362,-0.3931,214.4657,21.9084,-101.6336
0.865,-0.1338,-0.4731,217.458,25.313,-101.4046
0.8723,-0.1104,-0.4666,220.9771,29.0305,-100.6947
0.887,-0.0847,-0.4556,224.3053,31.771,-100.0611
0.908,-0.0435,-0.4106,227.9389,33.7786,-99.1756
0.9446,-0.0232,-0.3362,231.6412,34.2366,-97.4427
1.0034,-0.0234,-0.2581,234.0382,31.4275,-96.2519
1.0981,-0.0552,-0.0518,235.3359,21.5344,-93.687
1.2319,-0.0889,0.2502,235.1527,1.3893,-92.5343
1.3352,-0.0735,0.4321,234.4733,-20.5496,-92.0458
1.3877,-0.0022,0.5046,233.542,-38.7481,-90.5191
1.3835,0.0776,0.4753,233.1527,-51.2748,-90.2595
1.3315,0.1589,0.4153,233.2061,-58.313,-90.1908
1.2454,0.2222,0.387,233.7405,-63.0229,-91.458
1.1941,0.2412,0.3704,234.7176,-67.0382,-92.7634
1.1345,0.2725,0.3232,235.7863,-69.8855,-93.6489
1.2134,0.2793,0.1775,236.9466,-63.9389,-94.6412
1.5422,0.2444,0.0256,237.0305,-38.1374,-90.8779
1.8032,0.1775,-0.0254,235.7481,-2.4962,-81.7176
1.4192,0.1189,0.3167,233.3893,-2.3588,-74.2977
0.9592,0.1511,0.2595,232.5267,-31.9389,-73.8931
0.8313,0.23,-0.0767,232.2137,-41.2519,-72.8015
0.7842,0.2473,-0.1511,232.2901,-37.0305,-71.9542
0.8442,0.2485,-0.3115,231.4733,-26.2214,-70.1221
0.9165,0.2554,-0.2959,228.5725,-15.3817,-67.8321
0.9597,0.207,-0.2463,224.6031,-7.1832,-67.0458
1.1138,0.1951,-0.3293,219.7328,7.7634,-64.7252
1.1709,0.1685,-0.3115,213.8244,22.8321,-60.9237
1.136,0.1282,-0.2251,207.5496,28.4656,-57.1679
1.1467,0.124,-0.2246,200.687,31.5344,-53.0687
1.1497,0.114,-0.2393,193.9847,33.1221,-48.2137
1.0708,0.1035,-0.2148,186.9008,33.2595,-43.2824
1.0112,0.1008,-0.2522,180.5802,34.2901,-38.5725
0.9692,0.105,-0.3152,174.5802,35.1985,-33.9771
0.918,0.1147,-0.3162,169.5191,34.7023,-29.6489
0.8818,0.1055,-0.3523,164.8626,35.6489,-25.2824
0.8457,0.0959,-0.3706,160.8244,36.0,-21.7099
0.863,0.094,-0.4004,156.5267,35.2595,-17.5649
0.8796,0.0806,-0.4045,153.1527,33.5496,-14.2443
0.8679,0.0796,-0.429,150.1908,31.7328,-11.0916
0.894,0.0708,-0.4529,147.5954,30.3588,-7.9771
0.8564,0.0789,-0.4348,145.2595,28.2519,-5.2519
0.8418,0.0308,-0.4729,143.3435,26.9008,-3.145
0.8342,0.0149,-0.4934,142.0,25.687,-0.6183
0.8059,-0.0254,-0.4763,141.0382,23.6412,1.3969
0.7749,-0.0774,-0.4607,140.3893,20.8779,2.4962
0.7773,-0.0806,-0.4978,139.916,20.5344,3.7252
0.7644,-0.106,-0.5107,139.4733,21.2519,4.4198
0.8167,-0.0964,-0.5945,139.5649,22.3053,4.5573
0.7998,-0.0974,-0.5686,139.7634,22.916,4.4046
0.802,-0.1082,-0.561,140.1908,23.8397,3.9695
0.8005,-0.0969,-0.5352,141.0153,25.0687,3.2595
0.804,-0.0801,-0.5103,142.1069,26.3588,2.0687
0.804,-0.0581,-0.4785,143.4733,28.4275,0.771
0.8298,-0.042,-0.4839,145.1679,30.5267,-0.6489
0.8181,-0.0225,-0.468,147.145,32.916,-2.1069
0.8572,-0.0081,-0.5171,149.4733,35.9237,-3.6718
0.8447,0.0234,-0.4822,152.0992,38.1527,-5.1679
0.8721,0.115,-0.4753,153.8702,42.2977,-6.8626
0.8665,0.1599,-0.4697,156.458,45.4656,-8.9618
0.8438,0.1638,-0.4399,158.9237,45.7939,-10.6794
0.8618,0.1606,-0.415,161.6336,47.3969,-12.3282
0.8779,0.1592,-0.395,163.9237,49.5038,-13.855
0.8948,0.1616,-0.3892,166.1832,52.8626,-15.542
0.9355,0.1565,-0.396,168.1527,57.4962,-16.8855
0.9658,0.1643,-0.3789,170.2137,61.9771,-18.2214
0.9998,0.1707,-0.345,171.9008,65.1832,-19.1527
1.0212,0.178,-0.3418,173.6031,68.3817,-19.8855
1.0388,0.1772,-0.3345,175.1069,70.8397,-20.7328
1.062,0.1987,-0.3108,176.4809,71.542,-20.8015
1.0737,0.2114,-0.29,177.7252,71.771,-20.771
1.0745,0.2266,-0.2346,178.6565,69.6489,-21.2519
1.0901,0.23,-0.219,179.4275,66.3817,-21.1908
1.093,0.2405,-0.1946,180.1756,63.0763,-20.5649
1.105,0.2456,-0.1836,181.1832,59.5191,-20.8244
1.1274,0.2585,-0.1934,181.8397,56.5573,-20.7863
1.1301,0.27,-0.2148,182.4198,54.0916,-20.458
1.1184,0.2676,-0.2083,182.1832,50.6336,-20.6565
1.0959,0.2368,-0.2185,181.9542,46.7786,-21.4427
1.0881,0.2173,-0.2437,181.8092,44.1374,-22.2672
1.0708,0.2019,-0.314,181.7328,43.9771,-22.8397
1.0977,0.1953,-0.3691,181.6565,47.4962,-21.9084
1.0784,0.176,-0.3818,181.8092,48.2443,-20.4351
1.0425,0.1394,-0.385,182.0076,45.1221,-18.2595
1.041,0.123,-0.3926,182.313,40.9389,-16.2672
1.0002,0.073,-0.4192,183.1145,36.687,-14.4504
0.9766,-0.0354,-0.4812,184.1832,34.5496,-13.1603
0.978,-0.0981,-0.5049,185.6794,32.2901,-12.5496
0.9719,-0.1562,-0.5093,187.0763,30.626,-12.5954
0.939,-0.1809,-0.5044,188.3664,30.7099,-12.6107
0.9058,-0.1736,-0.5051,189.2519,31.7863,-13.3053
0.8804,-0.1338,-0.4819,189.855,33.9618,-14.374
0.8484,-0.0801,-0.446,190.6107,36.7481,-15.5496
0.8354,-0.0444,-0.4185,191.0992,40.8702,-16.542
0.821,0.002,-0.3503,191.4198,44.3511,-18.1221
0.7949,0.0337,-0.2852,191.0,46.7634,-19.1985
0.762,0.0479,-0.24,191.0687,48.0153,-20.6718
0.7407,0.0767,-0.2327,191.0076,50.1832,-22.1374
0.7576,0.0918,-0.2334,190.9542,55.6641,-22.6412
0.7808,0.1184,-0.25,190.8092,64.6336,-22.1679
0.7852,0.1165,-0.2461,190.6412,73.1069,-21.5267
0.804,0.125,-0.252,190.0153,79.7634,-20.9313
0.7803,0.1226,-0.2334,188.7939,84.5496,-20.1603
0.7998,0.1423,-0.2505,187.6412,90.3664,-19.0382
0.8269,0.1675,-0.2539,186.4351,95.6641,-17.2977
0.8203,0.1711,-0.2603,185.2901,100.4962,-15.1221
0.8252,0.1873,-0.2524,184.2824,103.4427,-13.0458
0.8186,0.1921,-0.2412,183.1527,104.7634,-10.8473
0.8225,0.1936,-0.2478,182.0534,106.6412,-8.4122
0.8481,0.1948,-0.2979,181.2519,108.4962,-5.9847
0.8374,0.187,-0.2891,180.313,110.0992,-3.7557
0.8572,0.1965,-0.3174,179.5267,112.4046,-0.8626
0.8796,0.1997,-0.3354,178.687,115.0153,1.8473
0.8862,0.2056,-0.3267,177.8244,117.9389,4.7786
0.9167,0.2146,-0.3486,177.4733,120.5267,7.8397
0.9302,0.2109,-0.3601,177.0153,124.0382,10.5344
0.9604,0.2183,-0.3665,176.4198,128.2443,13.2595
0.9866,0.218,-0.3838,176.3282,132.5954,16.2748
1.0059,0.2288,-0.3923,176.1908,136.8702,19.0153
1.041,0.2322,-0.3918,175.9466,141.2061,21.4275
1.0701,0.2397,-0.4036,176.0534,145.1298,23.8931
1.0847,0.2456,-0.4299,176.4886,148.2519,26.3664
1.1123,0.2495,-0.4219,176.9542,150.8855,28.5802
1.1392,0.2529,-0.3547,174.8244,152.8473,30.374
1.1321,0.2371,-0.3572,172.3512,153.1679,31.5114
1.0176,0.2336,-0.2949,170.9618,152.0687,32.6412
1.0122,0.2542,-0.2393,169.9771,150.2748,33.4733
1.0718,0.2476,-0.2314,168.7481,147.6183,34.4656
1.0791,0.2637,-0.2576,167.9237,143.7863,35.3053
1.1199,0.2769,-0.3381,167.5191,138.9008,35.9847
1.1367,0.2844,-0.3425,167.1603,132.4886,36.9008
1.0925,0.2837,-0.3018,167.1908,125.4657,37.4885
1.0684,0.2791,-0.2581,167.4046,118.6412,37.5267
1.0757,0.2656,-0.2422,167.9695,112.687,38.0076
1.0657,0.2397,-0.2136,168.1679,106.9008,38.313
1.0522,0.196,-0.1946,168.8244,101.9084,38.4885
1.0474,0.1599,-0.1985,169.1221,98.9313,38.0382
1.0386,0.1135,-0.2048,169.3512,97.2748,37.5496
1.0537,0.0906,-0.2708,169.0992,96.4504,36.5496
1.0571,0.0696,-0.2888,168.4504,96.5573,35.4733
1.0398,0.0503,-0.2876,167.6794,97.3817,34.5344
1.0308,0.0298,-0.2876,166.4886,97.5649,33.0382
1.0249,0.0259,-0.2593,164.8473,96.6336,31.3893
1.0129,0.0142,-0.241,162.626,94.542,29.8321
1.0247,0.0144,-0.2434,160.3512,92.2443,28.542
1.0168,0.022,-0.2222,158.3969,89.4275,27.4886
1.0381,0.0249,-0.2183,156.2824,85.6947,26.6412
1.0464,0.0398,-0.2236,153.9847,80.6031,25.6718
1.0618,0.054,-0.2415,151.6718,76.1832,24.9695
1.071,0.0674,-0.2502,149.7099,71.6718,23.9924
1.0696,0.0813,-0.2571,147.7176,66.8702,23.3053
1.0852,0.1077,-0.2705,145.8626,62.1374,23.4275
1.0964,0.1321,-0.2849,144.5191,57.9084,23.2061
1.0935,0.1555,-0.3027,143.1985,53.4733,23.3206
1.0798,0.1641,-0.2927,142.0687,49.916,23.9008
1.1047,0.1873,-0.3093,141.1985,46.2977,24.1985
1.1045,0.1995,-0.325,140.5496,42.9237,25.0611
1.1101,0.2266,-0.344,139.7786,39.8626,26.0763
1.123,0.2297,-0.3521,139.3206,37.4046,26.8015
1.1406,0.2505,-0.3552,138.5496,34.7099,27.4656
1.1514,0.2678,-0.3674,137.5267,33.5267,28.687
1.1492,0.2917,-0.3643,136.771,32.4656,29.5344
1.1614,0.2932,-0.3933,136.0,32.7023,30.6183
1.1411,0.2974,-0.3591,135.0534,33.5115,31.3435
1.1555,0.3003,-0.3735,134.3053,35.1298,32.0
1.1731,0.2996,-0.3928,133.3588,37.6794,32.626
1.1646,0.2976,-0.374,132.0076,41.0687,32.6183
1.1975,0.3032,-0.4297,130.4657,50.0763,33.2443
1.2024,0.3008,-0.415,129.5114,55.7481,33.4427
1.1753,0.2786,-0.3877,128.7557,56.8626,32.2595
1.2161,0.2756,-0.4529,128.0534,63.5038,32.0
1.1873,0.2683,-0.4319,127.771,70.4733,31.6412
1.1428,0.2437,-0.3674,127.4809,72.8015,29.9237
1.1919,0.2417,-0.4055,127.4275,77.6718,28.9771
1.1411,0.2244,-0.3591,127.2595,83.4046,27.8092
1.1272,0.2068,-0.2917,126.7786,87.9618,26.0992
1.2122,0.2058,-0.3367,126.7481,94.6489,24.9695
1.1636,0.178,-0.2954,127.1527,97.9618,23.3893
1.1228,0.1802,-0.3108,127.5573,100.5725,21.5191
1.1501,0.1729,-0.3396,128.4504,105.1069,20.6336
1.1174,0.1733,-0.281,129.2443,107.7176,19.2137
1.1306,0.1663,-0.3037,130.458,109.9084,17.6183
1.1042,0.1658,-0.3057,131.9084,111.7939,16.6947
1.04,0.1541,-0.2129,133.6183,112.6183,15.2214
1.0325,0.1404,-0.2175,135.6794,112.7557,13.6336
1.002,0.1453,-0.2095,137.5114,112.4657,12.5267
1.0027,0.1414,-0.2024,139.6107,111.1145,11.1374
1.0093,0.147,-0.2002,141.1985,109.1069,10.0916
0.9956,0.1497,-0.2039,142.9695,106.9771,9.0916
0.9851,0.1655,-0.1948,144.5267,104.1145,7.9618
0.9851,0.1675,-0.1885,145.8779,100.2366,6.7481
0.9448,0.1667,-0.1299,147.145,96.7099,6.374
0.9368,0.1794,-0.1282,148.3817,93.1603,5.542
0.9143,0.1755,-0.1233,149.3359,89.4122,4.8168
0.9031,0.1956,-0.126,149.8855,85.2443,4.2519
0.905,0.198,-0.136,150.771,81.3206,3.9008
0.8899,0.208,-0.1416,151.3512,77.2061,3.6794
0.8755,0.2197,-0.1445,151.8931,73.6718,3.1069
0.8831,0.2192,-0.1467,152.3588,70.2748,3.0153
0.8845,0.2173,-0.1482,152.542,67.6565,2.8855
0.8518,0.2187,-0.1008,152.6107,65.084,2.7405
0.8538,0.2227,-0.0837,152.5573,62.4198,2.855
0.876,0.2178,-0.1055,152.5114,60.9313,2.8397
0.9392,0.2227,-0.1252,152.4809,60.6794,2.687
0.9531,0.2239,-0.1199,152.3588,59.7252,2.3053
0.9192,0.2139,-0.1438,152.542,59.3893,2.2824
0.9614,0.2219,-0.1699,152.3893,60.5649,1.5649
1.0046,0.2388,-0.1938,152.3206,61.7786,0.7634
0.9602,0.2424,-0.1311,152.1374,64.0229,-0.145
0.989,0.2561,-0.1509,152.1145,67.313,-1.3588
1.0278,0.2534,-0.1758,152.5802,71.5954,-2.4504
1.0286,0.2625,-0.1855,153.0687,75.8702,-3.3435
1.0081,0.2505,-0.208,153.4198,80.4122,-4.5038
1.0225,0.2539,-0.2212,153.7634,83.7786,-6.1832
1.0815,0.2517,-0.2798,154.3588,87.5802,-7.7176
1.0674,0.239,-0.2573,154.3664,92.0153,-8.8779
1.042,0.24,-0.1802,152.5114,96.9313,-9.9847
1.031,0.2317,-0.1931,150.5267,103.0153,-10.7481
0.9639,0.2185,-0.0981,147.9466,104.8015,-12.2748
0.9373,0.2356,-0.0725,145.6107,104.8779,-13.9695
0.9819,0.2515,-0.0969,143.626,108.0763,-13.8473
0.9399,0.2605,-0.0562,141.5725,108.0305,-12.6107
0.8914,0.2815,-0.0173,138.8168,104.3588,-11.8244
0.8638,0.2808,0.0361,136.145,101.458,-10.9618
0.8401,0.2659,0.1265,133.6794,94.8779,-10.1679
0.8188,0.2659,0.1565,131.5114,87.313,-8.6718
0.7996,0.2305,0.1738,129.5038,79.7557,-7.1221
0.7952,0.2119,0.228,127.1298,69.9542,-5.771
0.7463,0.1948,0.2927,124.8244,59.0,-4.5878
0.72,0.1746,0.3445,122.2824,48.1908,-3.8397
0.709,0.1575,0.3826,120.5191,38.0992,-2.6565
0.6851,0.1338,0.4153,117.6107,28.0916,-1.6183
0.6819,0.1099,0.4404,113.9313,18.7863,-0.8015
0.7034,0.1277,0.4517,110.8168,10.6107,0.4656
0.6858,0.123,0.4829,106.9313,3.1145,1.7099
0.686,0.1372,0.5195,102.7328,-3.458,3.229
0.6956,0.1221,0.5208,98.4351,-9.9237,4.7405
0.6694,0.1467,0.5625,94.4427,-16.9313,5.6718
0.6543,0.1658,0.5781,90.771,-23.8168,6.1603
0.6399,0.1538,0.5859,86.6794,-30.0916,5.8015
0.5986,0.1628,0.6118,82.6183,-37.5649,4.0305
0.5757,0.1411,0.6069,78.6718,-45.1908,1.2443
0.613,0.1079,0.5374,74.9466,-49.9313,-1.9313
0.6821,0.0984,0.479,71.3664,-52.313,-5.1832
0.6748,0.0947,0.4241,68.4198,-55.2443,-8.229
0.7332,0.0989,0.3542,66.7176,-55.9847,-10.6947
0.762,0.1106,0.2908,65.8168,-53.1527,-11.855
0.7676,0.1196,0.2683,65.3511,-50.9847,-12.7481
0.77,0.1218,0.2534,64.9695,-48.4885,-13.8779
0.833,0.1555,0.2148,64.9847,-43.5573,-14.145
0.8416,0.1609,0.1929,65.0992,-38.3588,-13.8321
0.8933,0.1809,0.1848,65.0076,-33.4885,-13.3053
0.928,0.2053,0.1675,64.5115,-28.8244,-12.1603
0.9985,0.2156,0.0613,63.9466,-24.8855,-10.5649
1.0144,0.2227,0.0937,63.8015,-22.374,-8.4198
1.0449,0.2256,0.0857,64.1069,-19.0916,-5.084
1.0715,0.2134,0.0588,64.771,-14.3511,-0.2824
1.0615,0.2034,0.0688,65.7786,-9.9466,5.1603
1.0537,0.189,0.0691,66.8244,-6.0992,10.6794
1.0286,0.1992,0.0859,67.9237,-3.0611,16.0153
0.9941,0.2131,0.0869,68.7328,-2.0611,20.9237
1.021,0.2236,0.0044,69.8092,-1.6031,25.3817
0.9895,0.259,0.0007,71.2443,-1.8092,29.7252
0.9548,0.2795,0.0042,73.2137,-2.1603,34.2137
0.9258,0.2971,0.019,75.4885,-3.2214,38.7863
0.9063,0.3132,0.021,78.0763,-5.0763,42.9924
0.8823,0.3499,0.0603,80.6794,-7.855,47.5496
0.8184,0.3376,0.0757,83.3511,-10.8244,51.5267
0.8923,0.3862,0.0764,85.4275,-14.145,55.6565
0.8784,0.3591,-0.0566,88.4733,-16.9466,59.5725
0.9104,0.3567,-0.0427,92.0687,-21.8321,62.229
0.8374,0.3335,-0.0007,95.5878,-29.5344,64.0229
0.8379,0.353,-0.0024,97.8092,-36.2061,65.9924
0.8948,0.3264,-0.0513,100.542,-40.0305,68.3435
0.8723,0.3174,-0.0344,103.0153,-44.5191,70.3053
0.8674,0.3496,-0.019,105.0992,-49.1527,72.5038
0.9143,0.3689,-0.0562,106.5573,-54.0153,75.0763
0.9329,0.3765,-0.074,107.3817,-56.2137,77.374
0.9443,0.3752,-0.0898,107.9771,-58.7939,79.1069
0.9648,0.3726,-0.106,107.9313,-60.9542,80.7786
1.0181,0.375,-0.1716,107.6489,-62.9618,82.2595
1.0349,0.3643,-0.1707,107.4504,-65.6336,83.9466
1.0647,0.3662,-0.1882,107.1985,-66.7863,85.6641
1.0967,0.3718,-0.1882,107.229,-67.1756,87.1221
1.0923,0.3604,-0.1792,106.9313,-68.3588,87.9313
1.1206,0.3689,-0.1812,106.5954,-68.7023,88.7863
1.1318,0.3723,-0.177,106.0382,-68.4198,89.3206
1.1533,0.3777,-0.1648,105.4809,-68.1069,89.145
1.1563,0.3799,-0.1873,104.7405,-66.855,88.4885
1.1838,0.3845,-0.2244,103.7863,-64.6336,87.1527
1.1934,0.3772,-0.2256,102.9542,-62.0229,84.9466
1.2136,0.3899,-0.2483,102.0382,-58.7939,81.5954
1.2405,0.3987,-0.2432,101.2214,-55.1145,78.1603
1.4094,0.4412,-0.2363,99.3282,-48.855,78.2595
1.2295,0.4324,-0.2397,97.3969,-38.145,78.3588
1.3337,0.4333,-0.1831,96.2137,-34.1756,75.8092
1.248,0.4497,-0.2231,95.5649,-33.3435,71.687
1.3977,0.4299,-0.4695,95.9695,-28.9466,65.3206
1.3433,0.4189,-0.4451,96.7405,-26.3893,56.8015
1.2634,0.4158,-0.3948,97.0611,-23.0763,48.2824
1.2837,0.4158,-0.3699,97.0382,-17.1298,40.1069
1.304,0.4106,-0.3372,97.0,-11.5649,31.9847
1.283,0.4106,-0.2944,96.8168,-6.7328,23.3969
1.2778,0.4194,-0.2742,96.1832,-1.2061,15.5573
1.2961,0.4141,-0.2683,95.5343,4.9313,8.0076
1.4216,0.4268,-0.5254,94.6412,10.626,1.1069
1.4365,0.4263,-0.5254,94.0229,16.916,-6.3053
1.4463,0.4338,-0.5046,93.1069,22.3053,-13.0687
1.4255,0.4365,-0.469,91.8779,26.2672,-19.3511
1.4055,0.4399,-0.4231,90.6107,29.7634,-25.0153
1.3679,0.4385,-0.3809,89.2443,32.1221,-30.9389
1.3418,0.4312,-0.3406,87.9313,33.3359,-36.5496
1.3088,0.4231,-0.3083,86.3664,33.7328,-41.9695
1.2861,0.438,-0.2791,84.6794,33.4885,-47.3053
1.3613,0.467,-0.4143,82.4046,33.5344,-51.1298
1.3628,0.5164,-0.408,79.374,33.1832,-54.0534
1.3438,0.5693,-0.384,76.4504,31.9008,-55.2977
1.3167,0.6016,-0.3521,73.0,30.0382,-56.0
1.2566,0.5793,-0.3203,69.4809,26.9313,-56.7939
1.1917,0.5474,-0.301,66.0229,22.1756,-57.9847
1.1401,0.5244,-0.2605,62.7023,16.5954,-59.0458
1.0923,0.52,-0.2148,59.3969,10.771,-59.771
1.0994,0.5347,-0.2397,55.6031,5.4656,-60.2061
1.0977,0.5503,-0.2356,51.8855,0.3206,-59.9008
1.0706,0.5737,-0.2368,48.1985,-5.5802,-58.7481
1.041,0.5586,-0.23,44.4275,-11.4809,-58.1298
1.012,0.5322,-0.2449,41.1145,-16.6031,-57.7405
0.9988,0.5225,-0.23,37.9313,-21.6412,-57.0076
0.9661,0.4905,-0.2156,34.9466,-27.3817,-56.6489
0.9419,0.4734,-0.208,32.1679,-33.1679,-56.3359
0.9265,0.4668,-0.1726,29.6489,-37.6031,-55.7405
0.896,0.4314,-0.1587,26.6412,-46.2137,-55.9924
0.8936,0.406,-0.1697,24.0687,-51.7405,-56.1145
0.8853,0.3962,-0.1433,22.2137,-56.5115,-55.687
0.9021,0.385,-0.1709,20.4962,-61.5038,-55.4427
0.9187,0.3621,-0.1919,18.8473,-65.4275,-54.7634
0.9275,0.3491,-0.1875,17.3511,-68.8473,-53.6336
0.9238,0.3381,-0.1838,15.9084,-71.9313,-52.2672
0.9355,0.3342,-0.1765,14.8015,-73.7405,-50.2061
0.9409,0.3381,-0.1851,14.0382,-74.6718,-47.7328
0.9412,0.3315,-0.1816,13.2366,-75.0305,-44.5344
0.9551,0.3372,-0.1794,12.8397,-74.2977,-40.9466
0.9626,0.3354,-0.1836,12.9695,-73.5649,-37.0458
0.9773,0.3364,-0.197,13.2595,-73.1832,-32.4504
0.9915,0.3416,-0.2151,14.4656,-72.0534,-27.5038
1.0024,0.3435,-0.2346,15.5496,-70.2519,-22.6641
1.0173,0.3542,-0.2419,17.4886,-67.8092,-17.458
1.0183,0.3513,-0.2532,19.4504,-64.8702,-12.0916
1.02,0.3464,-0.262,21.9237,-61.6794,-7.4427
1.0208,0.3533,-0.2695,24.9695,-57.3511,-2.5191
1.001,0.3506,-0.2493,27.9313,-52.0076,1.9618
1.002,0.3389,-0.2761,30.7634,-45.5573,5.7252
0.9995,0.3184,-0.2913,34.2748,-38.1374,9.1679
0.9963,0.313,-0.3071,37.2214,-29.7099,11.9466
1.0039,0.3054,-0.3169,40.1221,-20.6718,14.3893
1.0088,0.292,-0.3267,43.2901,-11.5725,16.5725
1.0173,0.291,-0.3225,45.8092,-2.9237,18.4122
1.0295,0.283,-0.313,48.5115,4.7481,20.1069
1.0159,0.2795,-0.2854,50.7252,11.3664,21.1908
1.0149,0.2766,-0.272,53.0534,17.855,22.2824
1.0266,0.2729,-0.2651,55.1832,22.7634,23.4351
1.0408,0.2756,-0.252,57.4046,26.1298,23.6947
1.0459,0.2686,-0.2412,59.1756,28.8473,24.6947
1.0515,0.2649,-0.2175,60.7863,30.4122,25.084
1.0593,0.2659,-0.2034,62.3359,31.0534,25.1679
1.0623,0.2566,-0.1812,63.7252,30.9008,25.687
1.064,0.2556,-0.157,64.7786,30.4198,25.7099
1.0647,0.2522,-0.1406,65.6183,28.7405,25.4733
1.0769,0.2517,-0.134,66.3359,26.9389,25.1985
1.0811,0.2468,-0.1162,66.9771,24.3511,25.3282
1.0833,0.2388,-0.1013,67.4733,21.2595,24.855
1.0884,0.2312,-0.0842,67.8473,17.8397,24.2519
1.1013,0.2278,-0.074,68.1374,14.1527,23.3511
1.1074,0.2217,-0.0759,68.313,9.7023,22.3588
1.1096,0.2222,-0.0559,68.3206,5.1527,21.1985
1.1111,0.2207,-0.0432,68.5038,0.458,20.1985
1.1082,0.2195,-0.0376,68.5115,-4.5267,18.8321
1.1094,0.2146,-0.0352,68.2901,-9.4885,17.1221
1.0974,0.217,-0.0139,68.0153,-14.4427,15.4733
1.1006,0.2043,-0.0239,67.4351,-19.084,13.7328
1.0964,0.1985,-0.0195,66.8473,-23.6794,11.9008
1.0857,0.1934,-0.0217,66.0763,-27.5496,10.0076
1.0806,0.176,-0.0366,65.0687,-30.7405,8.4427
1.0815,0.1812,-0.0364,64.3282,-33.8244,6.4504
1.0691,0.1775,-0.0229,63.5115,-35.9084,4.6489
1.0637,0.1855,-0.0242,62.1145,-38.3664,2.2595
1.0474,0.1663,-0.0342,61.3588,-39.4427,0.313
1.0359,0.1687,-0.0293,60.6183,-40.2824,-1.3664
1.0093,0.1621,-0.0125,59.9771,-40.6183,-3.3206
1.001,0.1628,-0.0203,59.3511,-41.145,-5.2672
0.9807,0.1626,-0.0227,58.916,-40.8321,-7.1145
0.978,0.1475,-0.0142,58.3588,-40.4885,-8.8473
0.9788,0.1643,-0.0291,57.8321,-39.4504,-10.0687
0.96,0.1453,-0.0271,57.0076,-37.7939,-11.4962
0.9666,0.1475,-0.0398,56.3969,-36.4656,-12.6107
0.9558,0.135,-0.0391,55.687,-34.8931,-13.4504
0.9453,0.1365,-0.042,55.0763,-33.2137,-14.3206
0.9395,0.1272,-0.0483,54.7786,-31.1221,-15.3664
0.9353,0.1182,-0.0496,54.3435,-29.7405,-15.8473
0.9275,0.1106,-0.0442,54.2214,-28.1221,-16.4809
0.9255,0.0918,-0.0393,54.1298,-27.145,-16.5954
0.9265,0.0911,-0.0505,54.1832,-26.6794,-16.6947
0.9263,0.0637,-0.0496,54.1374,-27.084,-16.4504
0.9299,0.0535,-0.0662,54.0305,-26.8702,-16.0229
0.9207,0.0518,-0.0564,53.9466,-26.7023,-15.313
0.9106,0.032,-0.0564,53.8244,-27.0153,-14.6489
0.9167,0.0339,-0.0649,53.7252,-27.5038,-13.7863
0.9194,0.0225,-0.0664,53.9084,-28.4504,-12.8321
0.929,0.0286,-0.0815,54.0992,-29.6794,-11.5038
0.9141,-0.0063,-0.0764,54.3053,-30.7099,-10.3817
0.9185,-0.0203,-0.0859,54.1374,-31.1069,-9.2901
0.9041,-0.0266,-0.1042,54.5344,-30.9313,-7.7939
0.9021,-0.0205,-0.1074,55.0534,-31.0763,-6.7099
0.8892,-0.019,-0.1272,55.7252,-31.7252,-5.4885
0.8997,-0.0205,-0.1055,56.5802,-33.1069,-3.7786
0.9048,-0.0349,-0.1001,57.6031,-34.5038,-2.145
0.8955,-0.0552,-0.1265,59.0687,-34.9924,-0.3359
0.8855,-0.075,-0.1155,60.2595,-33.9084,1.1832
0.8774,-0.0989,-0.1082,61.7405,-32.5954,2.7557
0.8733,-0.0991,-0.1372,63.4351,-30.6565,3.9924
0.8792,-0.1167,-0.1453,65.1679,-28.3282,5.2672
0.8821,-0.1272,-0.1702,67.0305,-24.7634,6.2901
0.8892,-0.1406,-0.1692,69.2214,-19.8397,6.9008
0.8994,-0.1665,-0.1829,71.1832,-13.5573,7.5878
0.8938,-0.1794,-0.2085,73.3206,-5.7405,7.6794
0.8892,-0.2087,-0.2156,75.6412,3.3588,7.8168
0.884,-0.2278,-0.2183,78.0916,13.4198,7.3206
0.8823,-0.2551,-0.2463,80.6947,23.8702,6.687
0.8809,-0.2734,-0.249,83.3359,35.1832,6.1527
0.9043,-0.2844,-0.2769,86.0763,45.9084,5.3359
0.8967,-0.3042,-0.2593,88.9008,56.0076,4.229
0.9004,-0.3167,-0.2573,91.7939,65.8244,3.5954
0.9043,-0.3252,-0.24,94.5878,74.855,2.4046
0.9141,-0.324,-0.2361,97.6107,82.9313,1.6718
0.925,-0.3049,-0.2192,100.6183,90.3435,1.0458
0.9314,-0.2957,-0.2136,103.3435,96.771,0.145
0.9319,-0.2891,-0.1907,106.1985,101.7557,-0.145
0.9414,-0.2808,-0.2102,109.0687,105.3664,-0.5649
0.9358,-0.272,-0.1716,111.4809,108.3282,-1.313
0.9282,-0.2476,-0.145,114.0305,111.2366,-1.7252
0.9229,-0.2295,-0.1191,116.3206,112.5878,-2.2748
0.9207,-0.2209,-0.1106,117.145,112.626,-3.0611
0.9255,-0.2134,-0.0593,118.9847,111.7939,-4.1679
0.9209,-0.1885,-0.0857,119.9389,111.7023,-4.6794
0.8911,-0.1692,-0.0645,120.3359,111.8931,-5.3359
0.927,-0.1392,-0.0759,120.8244,112.7405,-5.542
0.9116,-0.1597,-0.0381,120.229,114.4885,-5.6336
0.9509,-0.0967,-0.0657,119.8702,117.9847,-4.8168
0.8694,-0.0732,0.0339,119.5802,117.0382,-4.855
0.8533,-0.0745,0.0291,119.6183,114.4962,-5.2595
0.928,-0.0239,-0.0425,119.5954,118.2672,-3.7863
0.8628,-0.0381,-0.0007,119.4657,119.7252,-3.2672
0.8867,0.0186,-0.0273,119.5954,119.9084,-1.6489
0.8806,0.0586,-0.0037,119.1985,116.7786,-0.6718
0.8809,0.0315,-0.0208,118.9237,117.084,0.9389
0.9514,0.032,-0.0879,118.6489,123.2748,3.8702
0.9412,0.0527,-0.0073,117.8702,124.7939,6.6183
0.9089,0.0554,-0.0056,116.6107,124.1679,8.5802
0.9558,0.092,-0.0542,117.2366,126.1221,11.084
0.8777,0.0403,0.0308,116.0687,125.4504,12.542
0.9546,0.0767,-0.0464,116.6641,130.3512,15.5802
0.8997,0.0667,0.0244,115.5954,130.0611,17.5114
0.8945,0.0837,0.021,115.4427,126.7176,18.4733
0.9336,0.0967,-0.0435,115.0382,128.374,20.8092
0.8894,0.0994,0.0139,114.2901,126.5725,22.0305
0.8953,0.1128,0.0022,113.4962,122.542,22.4046
0.9111,0.1196,0.0061,112.7252,121.3435,24.0458
0.8857,0.1079,0.0559,111.6031,117.1069,24.9084
0.8911,0.0959,0.0955,110.1908,110.3359,25.1832
0.9158,0.1001,0.0771,108.9618,105.4275,26.2519
0.9009,0.0793,0.1021,107.4504,98.4504,26.9466
0.9128,0.0608,0.1152,105.3588,90.0992,26.8397
0.9285,0.0505,0.103,103.4962,82.5191,27.1527
0.9268,0.0415,0.1096,101.3588,75.1298,27.4504
0.9265,0.0381,0.1077,98.7481,67.5802,27.6565
0.946,0.0229,0.1218,96.2824,60.6183,28.2443
0.9392,0.0129,0.116,93.7405,54.1603,28.8702
0.938,0.0046,0.1133,90.916,48.2595,28.9695
0.949,-0.0076,0.1138,88.4122,42.0229,29.0076
0.958,-0.0139,0.1042,85.8015,36.0992,29.3053
0.9543,-0.0156,0.1003,83.1221,31.0382,28.9008
0.9663,-0.0227,0.0815,80.3893,26.0153,28.4351
0.9873,-0.0242,0.0657,78.4351,21.2366,27.7786
0.9861,-0.0237,0.0505,76.626,16.7099,27.2366
1.0203,-0.0264,0.0374,75.0,13.2519,26.2977
1.0161,-0.031,0.0356,73.9008,10.5038,25.9618
1.0361,-0.0415,-0.0171,73.145,10.1298,25.7481
1.0833,-0.0674,-0.0383,73.1908,11.9389,26.4733
1.0532,-0.0806,-0.0344,73.3206,12.1908,26.3817
1.0586,-0.0996,-0.0359,74.5954,13.0611,26.3206
1.0662,-0.0981,-0.0659,76.2672,15.0076,25.771
1.0806,-0.0771,-0.0911,78.2061,17.1374,25.5114
1.0972,-0.0891,-0.1057,80.7176,18.4504,25.1145
1.0515,-0.0884,-0.0637,83.2748,18.9389,24.0076
1.0706,-0.0742,-0.0706,86.771,19.0153,22.3206
1.0613,-0.0564,-0.0393,89.9008,17.6718,20.2977
1.0422,-0.03,-0.0435,92.9771,16.6107,17.7328
1.062,0.0212,-0.041,95.3588,16.8092,14.771
1.0625,0.0547,-0.0532,97.3817,18.2366,12.1069
1.0605,0.0774,-0.0295,98.7099,20.6107,8.9618
1.0698,0.1035,-0.0486,99.9237,22.542,5.9618
1.0562,0.1155,-0.062,101.8702,23.2901,3.2443
1.0522,0.1365,-0.084,103.6718,24.0153,0.3282
1.0486,0.1475,-0.0981,105.7252,24.0458,-2.2366
1.0466,0.1711,-0.1045,107.6107,24.1145,-4.7481
1.0366,0.1755,-0.1199,109.7786,24.4504,-7.6183
1.0425,0.1758,-0.1421,111.5343,24.5038,-9.2977
1.0347,0.1887,-0.1484,113.0305,23.9542,-11.2672
1.0298,0.2144,-0.1555,114.4962,23.7252,-12.8244
1.0339,0.2351,-0.1443,116.1679,23.3893,-14.1221
1.0435,0.2537,-0.1392,116.3206,22.0763,-15.1985
1.0376,0.2502,-0.1345,117.1832,20.2061,-15.8779
1.042,0.2537,-0.1399,116.4504,18.5573,-16.3359
1.0303,0.2588,-0.1201,116.9237,16.1603,-16.4733
1.0452,0.2708,-0.0945,115.3435,13.2519,-16.3893
1.0439,0.2861,-0.0903,114.0382,10.1908,-16.1679
1.0181,0.2983,-0.075,112.2901,6.771,-16.1145
1.03,0.3115,-0.0757,110.2824,3.6183,-15.2748
1.0049,0.3127,-0.073,108.2137,0.2519,-15.0076
0.9919,0.3142,-0.0823,105.458,-2.3588,-14.5878
0.998,0.3127,-0.0815,102.687,-4.771,-14.0382
0.9802,0.3042,-0.0918,99.8779,-7.2214,-13.7557
0.9817,0.3074,-0.1025,96.8092,-8.8168,-13.2061
0.9702,0.3123,-0.1152,93.7099,-9.8702,-12.771
0.9595,0.3088,-0.1055,90.7099,-11.1679,-12.374
0.968,0.3008,-0.1372,87.458,-11.5725,-11.771
0.9678,0.3037,-0.134,84.2519,-12.1374,-11.5344
0.9736,0.3086,-0.1265,81.2901,-13.3206,-10.8397
0.9741,0.3135,-0.1392,78.1756,-14.2214,-10.0229
0.9792,0.3096,-0.1448,75.2519,-14.8855,-9.3969
0.9998,0.3191,-0.1421,72.2748,-16.0382,-8.3511
1.0063,0.3372,-0.1482,69.7099,-17.1832,-7.5573
1.0176,0.3535,-0.1572,67.2214,-17.7176,-6.3969
1.0178,0.3711,-0.1609,64.7481,-17.6794,-5.1069
1.0276,0.3862,-0.1641,62.542,-17.2901,-4.0916
1.0415,0.3914,-0.1646,60.3969,-16.7481,-3.084
1.0474,0.3992,-0.1643,58.5802,-16.1069,-1.8015
1.0684,0.4026,-0.1694,56.8397,-15.687,-0.7939
1.0698,0.4182,-0.1648,55.1298,-15.4275,0.4122
1.0771,0.4143,-0.1504,53.4275,-14.9924,1.6183
1.0864,0.4158,-0.1328,51.458,-14.9847,2.9847
1.0811,0.4128,-0.1279,49.7023,-15.1679,3.7176
1.0862,0.408,-0.1045,47.9542,-16.1527,4.4351
1.0784,0.4023,-0.1062,46.1679,-16.7557,5.5802
1.0798,0.3989,-0.0981,44.3969,-17.2443,6.0305
1.0803,0.3877,-0.0852,43.2137,-18.0916,6.4504
1.0862,0.3845,-0.0769,41.5267,-18.458,7.0534
1.0913,0.3823,-0.0762,39.6641,-18.626,7.916
1.0959,0.386,-0.0825,38.1832,-18.4275,8.4351
1.1067,0.3835,-0.0769,37.0687,-17.8626,9.1527
1.1118,0.3809,-0.072,35.7023,-16.6183,9.9389
1.1169,0.386,-0.075,34.3359,-15.1756,10.6565
1.1221,0.3816,-0.0776,33.374,-13.1679,11.687
1.1284,0.3755,-0.0974,32.4504,-11.1069,12.8397
1.1448,0.3694,-0.1052,31.687,-8.771,13.9695
1.1448,0.3647,-0.1113,30.8626,-6.0,15.5802
1.1536,0.3586,-0.113,30.1221,-3.3969,17.2519
1.1514,0.3533,-0.1265,29.8855,-1.0458,18.7557
1.1582,0.3491,-0.1189,29.5344,1.3893,20.5573
1.1584,0.3413,-0.1333,29.3817,3.5954,22.626
1.1772,0.3477,-0.1482,29.6489,5.9695,24.8244
1.1816,0.3386,-0.1584,29.9618,8.1145,26.7557
1.1865,0.3306,-0.1472,30.3817,10.1756,29.0534
1.1819,0.3286,-0.1453,30.8015,12.374,31.2977
1.1853,0.3145,-0.145,31.5038,14.0076,32.9695
1.1877,0.3149,-0.1313,31.8626,15.4198,34.7252
1.1768,0.3113,-0.1243,32.4351,16.7099,36.4198
1.1763,0.3096,-0.1299,32.626,18.2214,37.7786
1.1663,0.3057,-0.1267,32.687,19.6489,38.7939
1.1616,0.3022,-0.1223,32.7023,20.7481,39.4122
1.1609,0.2952,-0.1204,33.0229,21.2977,39.9008
1.1563,0.3013,-0.1089,32.8702,21.7939,40.229
1.1494,0.2942,-0.0974,32.6947,21.7176,40.3893
1.134,0.29,-0.0911,32.6489,21.2366,40.1603
1.1296,0.2893,-0.0869,32.2977,20.4504,39.916
1.116,0.2854,-0.0708,32.3511,19.4351,39.6336
1.1033,0.2915,-0.0647,32.2061,18.0611,39.5878
1.1045,0.2886,-0.0686,31.8092,16.4046,38.9695
1.0815,0.2861,-0.0591,31.7176,14.1374,38.6183
1.0688,0.2786,-0.0339,31.3817,11.5725,38.3511
1.0535,0.2844,-0.0359,31.0229,8.2977,37.5573
1.0332,0.2786,-0.0247,30.5496,4.8397,36.8168
1.0203,0.2842,-0.0088,29.9389,0.9924,36.0916
1.0042,0.2793,-0.0085,29.1374,-3.2901,35.1145
0.9893,0.2832,0.0134,28.2672,-8.2901,34.2901
0.9734,0.28,0.0156,27.229,-13.6794,33.5038
0.9573,0.2766,0.0215,25.8702,-19.5496,32.5496
0.9517,0.2759,0.0334,24.3817,-26.1374,31.6107
0.9446,0.262,0.0283,22.6565,-32.771,30.9466
0.948,0.2456,0.0308,20.7557,-39.1756,30.4275
0.9492,0.2222,0.0159,18.7099,-45.5878,30.1145
0.949,0.2146,0.0146,16.5802,-51.8397,29.9618
0.9495,0.2095,0.0168,14.1527,-57.7939,29.8473
0.9573,0.198,0.0105,11.9237,-65.0076,29.8931
0.9644,0.2043,0.0039,9.6412,-71.145,29.9466
0.9783,0.2214,0.0156,7.5649,-76.6489,30.458
0.9934,0.2471,0.021,5.9237,-81.3664,30.6107
1.0161,0.271,0.0269,4.4198,-85.9313,30.8931
1.0271,0.2874,0.0251,3.0153,-90.2901,31.2977
1.0542,0.2959,0.0291,1.8779,-92.3893,31.8473
1.0703,0.3013,0.031,0.855,-95.6183,32.2977
1.0967,0.2876,0.0027,0.0153,-99.6412,32.8321
1.116,0.2869,-0.0127,-0.3511,-101.6031,33.4198
1.1248,0.2874,-0.0176,-0.7176,-102.5267,33.7252
1.1375,0.2766,-0.0383,-0.7176,-103.2595,34.2214
1.1484,0.2676,-0.0515,-0.7099,-103.1527,34.7481
1.1582,0.2517,-0.075,-0.6718,-102.3817,35.0763
1.1692,0.2424,-0.0874,-0.2672,-101.3588,35.458
1.1738,0.2239,-0.0994,-0.2366,-99.9389,35.7176
1.186,0.2144,-0.1101,0.2137,-97.1374,35.9924
1.1973,0.2009,-0.1362,0.6412,-96.2519,36.2137
1.2063,0.198,-0.1389,1.2137,-93.8015,36.6412
1.2119,0.1934,-0.1458,1.8168,-91.5954,37.4351
1.2324,0.1833,-0.1526,2.4885,-87.9847,37.7328
1.2383,0.1787,-0.1589,3.1756,-85.6641,38.2977
1.2549,0.1777,-0.1663,3.9618,-83.4122,39.1374
1.2581,0.1733,-0.1763,4.8397,-81.4962,39.7328
1.2615,0.1794,-0.1743,5.8321,-79.7557,40.4656
1.2598,0.1729,-0.1755,6.5191,-77.9542,41.1145
1.2656,0.1719,-0.1824,7.2672,-76.5496,41.2748
1.2634,0.1682,-0.1768,7.8168,-75.3511,41.4198
1.2571,0.1602,-0.1616,8.4198,-74.0763,41.4504
1.2507,0.1663,-0.1619,8.5649,-72.9847,40.8779
1.2444,0.1589,-0.1672,8.8092,-71.7023,40.4351
1.2363,0.1516,-0.1658,8.9313,-70.3893,39.7252
1.2271,0.1509,-0.1594,8.7557,-69.313,38.374
1.2222,0.1516,-0.1567,8.3206,-68.2901,37.229
1.2168,0.1414,-0.1597,7.8321,-67.2672,35.9237
1.2148,0.1448,-0.1633,7.1527,-66.3893,34.5878
1.2131,0.125,-0.1694,6.0763,-65.7481,33.1298
